overlapRound	Item1	Item2	sn	cond	sess	trial	trial_type	title	typeOfScen	keybResp	keyDef	keybRT	rtBeep	rtDeadline	averageP	sdP	overlap	direct.xVy	correct	targetPresent	dirOverlap	correct01	overlapRoundSN	res.RT	fit.RT
0.05	an adult	a pedophile	35	UKtrst	1	1	1	simplified	impersonal	k	Yes	7.16239749735572	N/A	-1	0.034344262	0.015825463	0.068688525	1	1	TRUE	0.931311475	1	0.05	0.0576868892904008	7.10471060806532
0.05	a mentor	a pedophile	35	UKtrst	1	3	1	simplified	impersonal	k	Yes	6.88243747099785	N/A	-1	0.961666667	0.017395087	0.076666667	1	1	TRUE	0.923333333	1	0.05	-0.368917620593082	7.25135509159093
0.05	a rapist	an astronaut	35	UKtrst	1	9	1	simplified	impersonal	d	No	7.57301725605255	N/A	-1	0.047638462	0.018454336	0.095276923	-1	1	FALSE	-0.904723077	1	0.05	0.236631850203244	7.3363854058493
0.05	a pedophile	a mentor	35	UKtrst	1	25	1	simplified	impersonal	d	No	7.08506429395255	N/A	-1	0.961666667	0.017395087	0.076666667	-1	1	FALSE	-0.923333333	1	0.05	-0.256266299797298	7.34133059374985
0.05	a terrorist	a mentor	35	UKtrst	1	46	1	simplified	impersonal	d	No	7.25134498337221	N/A	-1	0.952975207	0.01892028	0.094049587	-1	1	FALSE	-0.905950413	1	0.05	-0.0899877730481702	7.34133275642038
0.05	a terrorist	an adult	35	UKtrst	1	97	1	simplified	impersonal	k	Yes	6.90975328164481	N/A	-1	0.040923077	0.018282672	0.081846154	-1	0	FALSE	-0.918153846	0	0.05	-0.431579474859877	7.34133275650469
0.05	a pedophile	an elderly person	35	UKtrst	1	94	1	simplified	impersonal	d	No	6.87832646829133	N/A	-1	0.032842975	0.01664706	0.06568595	-1	1	FALSE	-0.93431405	1	0.05	-0.463006288213362	7.34133275650469
0.15	a thief	a soldier	35	UKtrst	1	12	1	simplified	impersonal	d	No	7.32251043399739	N/A	-1	0.906613445	0.025824002	0.186773109	-1	1	FALSE	-0.813226891	1	0.15	-0.0176622325142795	7.34017266651167
0.15	an assassin	an astronaut	35	UKtrst	1	63	1	simplified	impersonal	d	No	6.99301512293296	N/A	-1	0.089882813	0.025109994	0.179765625	-1	1	FALSE	-0.820234375	1	0.15	-0.348317633571703	7.34133275650466
0.25	an addict	a rapist	35	UKtrst	1	41	1	simplified	impersonal	k	Yes	7.14834574390007	N/A	-1	0.141479675	0.031335374	0.28295935	1	1	TRUE	0.71704065	1	0.25	-0.192987011659162	7.34133275555923
0.25	a hooligan	an olympian	35	UKtrst	1	16	1	simplified	impersonal	d	No	6.96129604591017	N/A	-1	0.146115044	0.033726456	0.292230088	-1	1	FALSE	-0.707769912	1	0.25	-0.379868965306172	7.34116501121634
0.25	a rapist	an addict	35	UKtrst	1	32	1	simplified	impersonal	d	No	7.82763954636642	N/A	-1	0.141479675	0.031335374	0.28295935	-1	1	FALSE	-0.71704065	1	0.25	0.486306863192283	7.34133268317414
0.25	an elderly person	a convict	35	UKtrst	1	86	1	simplified	impersonal	k	Yes	7.19443685110033	N/A	-1	0.139190476	0.031039612	0.278380952	1	1	TRUE	0.721619048	1	0.25	-0.146895905404352	7.34133275650469
0.25	a hooligan	a mentor	35	UKtrst	1	84	1	simplified	impersonal	d	No	7.1731917424866	N/A	-1	0.121487603	0.02848289	0.242975207	-1	1	FALSE	-0.757024793	1	0.25	-0.168141014018088	7.34133275650469
0.25	an adult	an assassin	35	UKtrst	1	82	1	simplified	impersonal	k	Yes	7.00397413672268	N/A	-1	0.891219512	0.028783398	0.217560976	1	1	TRUE	0.782439024	1	0.25	-0.337358619782007	7.34133275650469
0.25	a mentor	a thief	35	UKtrst	1	93	1	simplified	impersonal	k	Yes	6.93925394604151	N/A	-1	0.874157025	0.02898668	0.25168595	1	1	TRUE	0.74831405	1	0.25	-0.402078810463179	7.34133275650469
0.25	a university student	a thief	35	UKtrst	1	79	1	simplified	impersonal	k	Yes	6.97447891102505	N/A	-1	0.87442735	0.03118012	0.251145299	1	1	TRUE	0.748854701	1	0.25	-0.366853845479642	7.34133275650469
0.25	a university student	a hooligan	35	UKtrst	1	18	1	simplified	impersonal	k	Yes	7.12286665859908	N/A	-1	0.858273504	0.031504583	0.283452991	1	1	TRUE	0.716547009	1	0.25	-0.21840231127597	7.34126896987505
0.25	a member of parliament	a rapist	35	UKtrst	1	19	1	simplified	impersonal	k	Yes	7.09090982207998	N/A	-1	0.855307692	0.031337817	0.289384615	1	1	TRUE	0.710615385	1	0.25	-0.250383600315613	7.3412934223956
0.25	a judge	an assassin	35	UKtrst	1	37	1	simplified	impersonal	k	Yes	7.57916796739608	N/A	-1	0.861274194	0.031699444	0.277451613	1	1	TRUE	0.722548387	1	0.25	0.237835217429966	7.34133274996611
0.25	a convict	a soldier	35	UKtrst	1	57	1	simplified	impersonal	d	No	7.26262860097424	N/A	-1	0.124821705	0.029687253	0.249643411	-1	1	FALSE	-0.750356589	1	0.25	-0.0787041555300325	7.34133275650427
0.35	a terrorist	a member of parliament	35	UKtrst	1	28	1	simplified	impersonal	d	No	7.53422832627409	N/A	-1	0.844918182	0.034703099	0.310163636	-1	1	FALSE	-0.689836364	1	0.35	0.192896076907551	7.34133224936654
0.35	a nun	a hooligan	35	UKtrst	1	54	1	simplified	impersonal	k	Yes	7.11314210870709	N/A	-1	0.159852459	0.032052521	0.319704918	1	1	TRUE	0.680295082	1	0.35	-0.228190647795836	7.34133275650292
0.35	a billionaire	a thief	35	UKtrst	1	69	1	simplified	impersonal	k	Yes	7.11558212618445	N/A	-1	0.801189189	0.038793088	0.397621622	1	1	TRUE	0.602378378	1	0.35	-0.225750630320232	7.34133275650469
0.35	an addict	an orphan	35	UKtrst	1	66	1	simplified	impersonal	d	No	7.17548971362422	N/A	-1	0.167077586	0.034000282	0.334155172	-1	1	FALSE	-0.665844828	1	0.35	-0.16584304288046	7.34133275650468
0.35	a thief	a billionaire	35	UKtrst	1	30	1	simplified	impersonal	d	No	7.55381085200823	N/A	-1	0.801189189	0.038793088	0.397621622	-1	1	FALSE	-0.602378378	1	0.35	0.212478288347311	7.34133256366092
0.45	a judge	a convict	35	UKtrst	1	35	1	simplified	impersonal	k	Yes	7.33171496972647	N/A	-1	0.201325581	0.034553151	0.402651163	1	1	TRUE	0.597348837	1	0.45	-0.0096177695831523	7.34133273930962
0.55	a billionaire	a convict	35	UKtrst	1	96	1	simplified	impersonal	k	Yes	7.07580886397839	N/A	-1	0.735190083	0.041215653	0.529619835	1	1	TRUE	0.470380165	1	0.55	-0.2655238925263	7.34133275650469
0.55	a member of parliament	an elderly person	35	UKtrst	1	118	1	simplified	impersonal	d	No	7.05531284333975	N/A	-1	0.266703704	0.041137924	0.533407407	-1	1	FALSE	-0.466592593	1	0.55	-0.286019913164935	7.34133275650469
0.55	a convict	a billionaire	35	UKtrst	1	36	1	simplified	impersonal	d	No	7.62948991639399	N/A	-1	0.735190083	0.041215653	0.529619835	-1	1	FALSE	-0.470380165	1	0.55	0.28815717049267	7.34133274590133
0.55	an addict	a mentor	35	UKtrst	1	117	1	simplified	impersonal	d	No	7.80302664363222	N/A	-1	0.746537815	0.04073616	0.50692437	-1	1	FALSE	-0.49307563	1	0.55	0.46169388712753	7.34133275650469
0.55	an addict	a thief	35	UKtrst	1	65	1	simplified	impersonal	d	No	7.66434663209862	N/A	-1	0.289793103	0.042155487	0.579586207	1	0	TRUE	0.420413793	0	0.55	0.323013875593939	7.34133275650468
0.55	a member of parliament	a hooligan	35	UKtrst	1	42	1	simplified	impersonal	k	Yes	7.16006920759613	N/A	-1	0.707463636	0.044322941	0.585072727	1	1	TRUE	0.414927273	1	0.55	-0.181263548325543	7.34133275592167
0.55	a soldier	a nun	35	UKtrst	1	51	1	simplified	impersonal	k	Yes	7.06817200038804	N/A	-1	0.287650407	0.041256931	0.575300813	1	1	TRUE	0.424699187	1	0.55	-0.273160756109128	7.34133275649717
0.55	a member of parliament	a thief	35	UKtrst	1	101	1	simplified	impersonal	k	Yes	6.99668148817654	N/A	-1	0.730127273	0.043729581	0.539745455	1	1	TRUE	0.460254545	1	0.55	-0.344651268328148	7.34133275650469
0.55	a member of parliament	an orphan	35	UKtrst	1	108	1	simplified	impersonal	d	No	7.04403289727469	N/A	-1	0.258554545	0.040329428	0.517109091	-1	1	FALSE	-0.482890909	1	0.55	-0.297299859230002	7.34133275650469
0.55	a soldier	a judge	35	UKtrst	1	49	1	simplified	impersonal	k	Yes	7.39572160860205	N/A	-1	0.293983333	0.042965829	0.587966667	1	1	TRUE	0.412033333	1	0.55	0.0543888521171265	7.34133275648492
0.65	an elderly person	a celebrity	35	UKtrst	1	22	1	simplified	impersonal	k	Yes	7.12608727329912	N/A	-1	0.306889908	0.045726782	0.613779817	1	1	TRUE	0.386220183	1	0.65	-0.215236259863714	7.34132353316284
0.65	a soldier	an olympian	35	UKtrst	1	70	1	simplified	impersonal	k	Yes	7.35308192051543	N/A	-1	0.664324561	0.045101837	0.671350877	1	1	TRUE	0.328649123	1	0.65	0.0117491640107463	7.34133275650469
0.65	a homeless adult	an elderly person	35	UKtrst	1	53	1	simplified	impersonal	d	No	8.26590733415575	N/A	-1	0.317927419	0.04210367	0.635854839	-1	1	FALSE	-0.364145161	1	0.65	0.924574577653918	7.34133275650183
0.65	an elderly person	a homeless adult	35	UKtrst	1	52	1	simplified	impersonal	k	Yes	6.98841318199959	N/A	-1	0.317927419	0.04210367	0.635854839	1	1	TRUE	0.364145161	1	0.65	-0.35291957450046	7.34133275650005
0.65	an addict	a judge	35	UKtrst	1	77	1	simplified	impersonal	k	Yes	7.6377164326648	N/A	-1	0.670290598	0.04306506	0.659418803	-1	0	FALSE	-0.340581197	0	0.65	0.296383676160112	7.34133275650469
0.65	a rapist	a terrorist	35	UKtrst	1	8	1	simplified	impersonal	k	Yes	8.06652149046999	N/A	-1	0.327384	0.041441162	0.654768	-1	0	FALSE	-0.345232	0	0.65	0.733211664475862	7.33330982599413
0.65	a celebrity	a convict	35	UKtrst	1	7	1	simplified	impersonal	k	Yes	7.04403289727469	N/A	-1	0.697247934	0.041301884	0.605504132	1	1	TRUE	0.394495868	1	0.65	-0.284289377770163	7.32832227504485
0.65	an orphan	a nun	35	UKtrst	1	13	1	simplified	impersonal	k	Yes	7.02375895473844	N/A	-1	0.310721311	0.042338439	0.621442623	1	1	TRUE	0.378557377	1	0.65	-0.316858430745682	7.34061738548412
0.65	an assassin	an addict	35	UKtrst	1	73	1	simplified	impersonal	d	No	7.20785987143248	N/A	-1	0.69553719	0.043238049	0.60892562	-1	1	FALSE	-0.39107438	1	0.65	-0.133472885072211	7.34133275650469
0.65	a homeless adult	an orphan	35	UKtrst	1	90	1	simplified	impersonal	k	Yes	7.09589322109753	N/A	-1	0.308401575	0.041915693	0.61680315	-1	0	FALSE	-0.38319685	0	0.65	-0.245439535407155	7.34133275650469
0.65	an addict	a billionaire	35	UKtrst	1	6	1	simplified	impersonal	d	No	7.72709448477984	N/A	-1	0.665	0.045195051	0.67	-1	1	FALSE	-0.33	1	0.65	0.406860331534163	7.32023415324568
0.65	a terrorist	a pedophile	35	UKtrst	1	102	1	simplified	impersonal	k	Yes	7.11232744471091	N/A	-1	0.304528455	0.040227584	0.609056911	1	1	TRUE	0.390943089	1	0.65	-0.229005311793776	7.34133275650469
0.65	a university student	a celebrity	35	UKtrst	1	47	1	simplified	impersonal	k	Yes	7.49164547360513	N/A	-1	0.345309091	0.04392244	0.690618182	1	1	TRUE	0.309381818	1	0.65	0.150312717152431	7.3413327564527
0.65	a pedophile	a hooligan	35	UKtrst	1	33	1	simplified	impersonal	d	No	7.23128700432762	N/A	-1	0.664211382	0.044606592	0.671577236	-1	1	FALSE	-0.328422764	1	0.65	-0.110045706957693	7.34133271128531
0.75	a judge	a police officer	35	UKtrst	1	24	1	simplified	impersonal	d	No	6.9985096422506	N/A	-1	0.386015625	0.043028534	0.77203125	-1	1	FALSE	-0.22796875	1	0.75	-0.342819606996765	7.34132924924737
0.75	a soldier	a police officer	35	UKtrst	1	29	1	simplified	impersonal	d	No	7.18083119904456	N/A	-1	0.376635659	0.041195439	0.753271318	1	0	TRUE	0.246728682	0	0.75	-0.160501244732726	7.34133244377728
0.75	an addict	a convict	35	UKtrst	1	92	1	simplified	impersonal	k	Yes	7.57044325205737	N/A	-1	0.369587302	0.042051098	0.739174603	1	1	TRUE	0.260825397	1	0.75	0.229110495552687	7.34133275650469
0.75	a celebrity	a police officer	35	UKtrst	1	10	1	simplified	impersonal	d	No	7.26542972325395	N/A	-1	0.358876033	0.041555957	0.717752066	-1	1	FALSE	-0.282247934	1	0.75	-0.072852242959689	7.33828196621364
0.75	an orphan	an adult	35	UKtrst	1	80	1	simplified	impersonal	k	Yes	7.14598446771439	N/A	-1	0.395822034	0.04666366	0.791644068	1	1	TRUE	0.208355932	1	0.75	-0.195348288790299	7.34133275650469
0.75	an olympian	a member of parliament	35	UKtrst	1	109	1	simplified	impersonal	k	Yes	7.10002716662926	N/A	-1	0.3744	0.047977729	0.7488	1	1	TRUE	0.2512	1	0.75	-0.241305589875427	7.34133275650469
0.75	an elderly person	a billionaire	35	UKtrst	1	11	1	simplified	impersonal	k	Yes	7.4121603349452	N/A	-1	0.365798165	0.045269409	0.73159633	1	1	TRUE	0.26840367	1	0.75	0.0727088522875228	7.33945148265768
0.75	a homeless adult	a mentor	35	UKtrst	1	107	1	simplified	impersonal	d	No	7.0335064842877	N/A	-1	0.367046154	0.040821089	0.734092308	-1	1	FALSE	-0.265907692	1	0.75	-0.30782627221699	7.34133275650469
0.75	an elderly person	an adult	35	UKtrst	1	71	1	simplified	impersonal	d	No	7.90801944463247	N/A	-1	0.3986	0.044520798	0.7972	1	0	TRUE	0.2028	0	0.75	0.566686688127785	7.34133275650469
0.75	a hooligan	a terrorist	35	UKtrst	1	34	1	simplified	impersonal	k	Yes	7.41818082272679	N/A	-1	0.621059322	0.043965567	0.757881356	1	1	TRUE	0.242118644	1	0.75	0.0768480941066905	7.3413327286201
0.75	an olympian	an elderly person	35	UKtrst	1	68	1	simplified	impersonal	k	Yes	7.62168499872461	N/A	-1	0.616603604	0.04506105	0.766792793	-1	0	FALSE	-0.233207207	0	0.75	0.280352242219926	7.34133275650469
0.75	a terrorist	a hooligan	35	UKtrst	1	21	1	simplified	impersonal	d	No	7.27586460054653	N/A	-1	0.621059322	0.043965567	0.757881356	-1	1	FALSE	-0.242118644	1	0.75	-0.0654531988152547	7.34131779936179
0.85	a university student	an orphan	35	UKtrst	1	45	1	simplified	impersonal	k	Yes	8.08085641964099	N/A	-1	0.411478632	0.045661422	0.822957265	-1	0	FALSE	-0.177042735	0	0.85	0.739523663273009	7.34133275636798
0.85	an astronaut	a homeless adult	35	UKtrst	1	119	1	simplified	impersonal	k	Yes	7.26612877955645	N/A	-1	0.419412214	0.043392138	0.838824427	1	1	TRUE	0.161175573	1	0.85	-0.0752039769482362	7.34133275650469
0.85	a soldier	an adult	35	UKtrst	1	43	1	simplified	impersonal	k	Yes	7.61233683716775	N/A	-1	0.590554622	0.044721475	0.818890756	1	1	TRUE	0.181109244	1	0.85	0.271004081022578	7.34133275614517
0.85	a nun	a university student	35	UKtrst	1	110	1	simplified	impersonal	d	No	7.16549347506085	N/A	-1	0.579628099	0.04388186	0.840743802	-1	1	FALSE	-0.159256198	1	0.85	-0.175839281443841	7.34133275650469
0.85	a judge	an astronaut	35	UKtrst	1	15	1	simplified	impersonal	k	Yes	7.4759059693674	N/A	-1	0.430330645	0.044709298	0.86066129	-1	0	FALSE	-0.13933871	0	0.85	0.134845239020877	7.34106073034652
0.85	a member of parliament	an addict	35	UKtrst	1	31	1	simplified	impersonal	k	Yes	7.50933526601659	N/A	-1	0.569805556	0.046965722	0.860388889	1	1	TRUE	0.139611111	1	0.85	0.168002628429267	7.34133263758732
0.85	a celebrity	a judge	35	UKtrst	1	72	1	simplified	impersonal	k	Yes	7.86978390253015	N/A	-1	0.419758929	0.047716839	0.839517857	-1	0	FALSE	-0.160482143	0	0.85	0.528451146025459	7.34133275650469
0.85	a university student	a nun	35	UKtrst	1	2	1	simplified	impersonal	k	Yes	7.26612877955645	N/A	-1	0.579628099	0.04388186	0.840743802	1	1	TRUE	0.159256198	1	0.85	0.0707093822189453	7.19541939733751
0.85	an olympian	a mentor	35	UKtrst	1	27	1	simplified	impersonal	d	No	8.55024104546244	N/A	-1	0.558853448	0.046298734	0.882293103	-1	1	FALSE	-0.117706897	1	0.85	1.20890911136441	7.34133193409803
0.85	a celebrity	a nun	35	UKtrst	1	14	1	simplified	impersonal	k	Yes	6.99484998583307	N/A	-1	0.44053913	0.04543181	0.881078261	-1	0	FALSE	-0.118921739	0	0.85	-0.346041636190548	7.34089162202362
0.85	a homeless adult	a university student	35	UKtrst	1	91	1	simplified	impersonal	d	No	7.23201033166476	N/A	-1	0.578496	0.044860031	0.843008	-1	1	FALSE	-0.156992	1	0.85	-0.109322424839928	7.34133275650469
0.95	an adult	a mentor	35	UKtrst	1	75	1	simplified	impersonal	d	No	7.78904040165748	N/A	-1	0.480545455	0.046604891	0.961090909	1	0	TRUE	0.038909091	0	0.95	0.44770764515279	7.34133275650469
0.95	a celebrity	a member of parliament	35	UKtrst	1	5	1	simplified	impersonal	k	Yes	7.24351297466548	N/A	-1	0.520631068	0.050282638	0.958737864	1	1	TRUE	0.0412621359999999	1	0.95	-0.0636049788855129	7.30711795355099
0.95	an orphan	a soldier	35	UKtrst	1	44	1	simplified	impersonal	k	Yes	7.44716835960004	N/A	-1	0.51975	0.045540706	0.9605	-1	0	FALSE	-0.0395	0	0.95	0.10583560331705	7.34133275628299
0.95	a university student	an astronaut	35	UKtrst	1	113	1	simplified	impersonal	k	Yes	7.29097477814298	N/A	-1	0.533778689	0.043323604	0.932442623	1	1	TRUE	0.067557377	1	0.95	-0.0503579783617054	7.34133275650469
0.95	an olympian	a homeless adult	35	UKtrst	1	76	1	simplified	impersonal	k	Yes	8.13885675069633	N/A	-1	0.455826446	0.044698618	0.911652893	1	1	TRUE	0.088347107	1	0.95	0.797523994191638	7.34133275650469
0.95	a soldier	an orphan	35	UKtrst	1	59	1	simplified	impersonal	d	No	7.15226885603254	N/A	-1	0.51975	0.045540706	0.9605	1	0	TRUE	0.0395	0	0.95	-0.18906390047199	7.34133275650453
0.95	a soldier	an elderly person	35	UKtrst	1	95	1	simplified	impersonal	k	Yes	7.51425465281641	N/A	-1	0.515145299	0.046544463	0.969709402	1	1	TRUE	0.030290598	1	0.95	0.172921896311723	7.34133275650469
0.95	a thief	an assassin	35	UKtrst	1	115	1	simplified	impersonal	k	Yes	7.45876269238096	N/A	-1	0.494268293	0.043528702	0.988536585	-1	0	FALSE	-0.011463415	0	0.95	0.117429935876273	7.34133275650469
0.95	a nun	a billionaire	35	UKtrst	1	48	1	simplified	impersonal	k	Yes	7.56734567601324	N/A	-1	0.501443478	0.046949754	0.997113043	-1	0	FALSE	-0.00288695699999997	0	0.95	0.22601291954061	7.34133275647263
0.95	a police officer	a mentor	35	UKtrst	1	38	1	simplified	impersonal	k	Yes	7.13009851012558	N/A	-1	0.471458015	0.043343804	0.942916031	1	1	TRUE	0.057083969	1	0.95	-0.211234242347087	7.34133275247267
0.05	a terrorist	a soldier	26	UKtrst	1	74	1	simplified	impersonal	k	No	8.34569287325387	N/A	-1	0.96492437	0.016585987	0.070151261	-1	1	FALSE	-0.929848739	1	0.05	0.219556249060876	8.12613662419299
0.05	a rapist	a mentor	26	UKtrst	1	111	1	simplified	impersonal	k	No	8.57828829077605	N/A	-1	0.95027907	0.019544972	0.09944186	-1	1	FALSE	-0.90055814	1	0.05	0.45215166658306	8.12613662419299
0.05	a soldier	a pedophile	26	UKtrst	1	89	1	simplified	impersonal	d	Yes	8.76577054398726	N/A	-1	0.025395161	0.014285664	0.050790323	1	1	TRUE	0.949209677	1	0.05	0.639633919794267	8.12613662419299
0.05	an orphan	a terrorist	26	UKtrst	1	30	1	simplified	impersonal	d	Yes	8.0375431851187	N/A	-1	0.029864407	0.016063776	0.059728814	1	1	TRUE	0.940271186	1	0.05	-0.0885934390743017	8.126136624193
0.05	a pedophile	a university student	26	UKtrst	1	61	1	simplified	impersonal	k	No	8.50936261230105	N/A	-1	0.961213115	0.017642591	0.07757377	-1	1	FALSE	-0.92242623	1	0.05	0.383225988108059	8.12613662419299
0.05	a rapist	an elderly person	26	UKtrst	1	72	1	simplified	impersonal	k	No	7.36960072052641	N/A	-1	0.039292683	0.018007748	0.078585366	-1	1	FALSE	-0.921414634	1	0.05	-0.75653590366658	8.12613662419299
0.05	a pedophile	an orphan	26	UKtrst	1	12	1	simplified	impersonal	k	No	8.02355239240435	N/A	-1	0.028674797	0.014648858	0.057349593	-1	1	FALSE	-0.942650407	1	0.05	-0.102585575779683	8.12613796818403
0.05	a soldier	a terrorist	26	UKtrst	1	56	1	simplified	impersonal	d	Yes	7.99226864327075	N/A	-1	0.96492437	0.016585987	0.070151261	1	1	TRUE	0.929848739	1	0.05	-0.133867980922244	8.12613662419299
0.05	a terrorist	a university student	26	UKtrst	1	44	1	simplified	impersonal	k	No	7.67693714581808	N/A	-1	0.954008547	0.019896838	0.091982906	-1	1	FALSE	-0.908017094	1	0.05	-0.44919947837491	8.12613662419299
0.05	a pedophile	a soldier	26	UKtrst	1	48	1	simplified	impersonal	k	No	7.25559127425367	N/A	-1	0.025395161	0.014285664	0.050790323	-1	1	FALSE	-0.949209677	1	0.05	-0.870545349939325	8.12613662419299
0.15	a rapist	a judge	26	UKtrst	1	78	1	simplified	impersonal	k	No	8.21743853773019	N/A	-1	0.929198413	0.022152029	0.141603175	-1	1	FALSE	-0.858396825	1	0.15	0.0913019135371975	8.12613662419299
0.15	a pedophile	a judge	26	UKtrst	1	107	1	simplified	impersonal	k	No	7.58528107863913	N/A	-1	0.948895161	0.020089609	0.102209677	-1	1	FALSE	-0.897790323	1	0.15	-0.540855545553864	8.12613662419299
0.15	a mentor	an assassin	26	UKtrst	1	104	1	simplified	impersonal	d	Yes	8.69701161799207	N/A	-1	0.900732283	0.027937936	0.198535433	1	1	TRUE	0.801464567	1	0.15	0.570874993799084	8.12613662419299
0.15	a nun	a terrorist	26	UKtrst	1	77	1	simplified	impersonal	d	Yes	8.63105744756528	N/A	-1	0.924688525	0.023205077	0.150622951	1	1	TRUE	0.849377049	1	0.15	0.504920823372295	8.12613662419299
0.15	a terrorist	a homeless adult	26	UKtrst	1	112	1	simplified	impersonal	k	No	7.61233683716775	N/A	-1	0.910452381	0.025098586	0.179095238	-1	1	FALSE	-0.820904762	1	0.15	-0.513799787025244	8.12613662419299
0.15	a rapist	a homeless adult	26	UKtrst	1	79	1	simplified	impersonal	k	No	8.09315669772264	N/A	-1	0.910634328	0.024718674	0.178731343	-1	1	FALSE	-0.821268657	1	0.15	-0.0329799264703521	8.12613662419299
0.15	an orphan	a thief	26	UKtrst	1	64	1	simplified	impersonal	d	Yes	8.25062008217469	N/A	-1	0.078847458	0.024532345	0.157694915	1	1	TRUE	0.842305085	1	0.15	0.124483457981702	8.12613662419299
0.15	a thief	a soldier	26	UKtrst	1	3	1	simplified	impersonal	k	No	7.49443021503157	N/A	-1	0.906613445	0.025824002	0.186773109	-1	1	FALSE	-0.813226891	1	0.15	-0.647766541781406	8.14219675681297
0.15	a hooligan	a soldier	26	UKtrst	1	80	1	simplified	impersonal	k	No	8.02387999273488	N/A	-1	0.098336134	0.02677938	0.196672269	-1	1	FALSE	-0.803327731	1	0.15	-0.102256631458111	8.12613662419299
0.15	a judge	a pedophile	26	UKtrst	1	54	1	simplified	impersonal	d	Yes	8.27486682068525	N/A	-1	0.948895161	0.020089609	0.102209677	1	1	TRUE	0.897790323	1	0.15	0.148730196492265	8.12613662419299
0.15	a soldier	a hooligan	26	UKtrst	1	70	1	simplified	impersonal	d	Yes	8.27180403115471	N/A	-1	0.098336134	0.02677938	0.196672269	1	1	TRUE	0.803327731	1	0.15	0.145667406961719	8.12613662419299
0.15	a terrorist	an olympian	26	UKtrst	1	51	1	simplified	impersonal	k	No	7.67925142595306	N/A	-1	0.050637168	0.019894328	0.101274336	-1	1	FALSE	-0.898725664	1	0.15	-0.446885198239931	8.12613662419299
0.15	a pedophile	a nun	26	UKtrst	1	18	1	simplified	impersonal	k	No	7.76004068088038	N/A	-1	0.944614173	0.019996424	0.110771654	-1	1	FALSE	-0.889228346	1	0.15	-0.366095945883959	8.12613662676434
0.25	an assassin	a nun	26	UKtrst	1	7	1	simplified	impersonal	k	No	8.77847995250849	N/A	-1	0.856574803	0.028804434	0.286850394	-1	1	FALSE	-0.713149606	1	0.25	0.652095818544774	8.12638413396371
0.25	an elderly person	a hooligan	26	UKtrst	1	9	1	simplified	impersonal	k	No	8.47386806667786	N/A	-1	0.111577586	0.02813358	0.223155172	1	0	TRUE	0.776844828	0	0.25	0.34770071592369	8.12616735075417
0.25	a rapist	a member of parliament	26	UKtrst	1	53	1	simplified	impersonal	k	No	7.41276401742656	N/A	-1	0.855307692	0.031337817	0.289384615	-1	1	FALSE	-0.710615385	1	0.25	-0.713372606766427	8.12613662419299
0.25	a celebrity	a rapist	26	UKtrst	1	25	1	simplified	impersonal	d	Yes	8.54636356871602	N/A	-1	0.874705882	0.029577311	0.250588235	1	1	TRUE	0.749411765	1	0.25	0.420226944521294	8.12613662419472
0.25	a billionaire	a terrorist	26	UKtrst	1	57	1	simplified	impersonal	d	Yes	7.79934339821592	N/A	-1	0.894315315	0.028663322	0.211369369	1	1	TRUE	0.788630631	1	0.25	-0.326793225977069	8.12613662419299
0.25	an elderly person	a convict	26	UKtrst	1	49	1	simplified	impersonal	d	Yes	8.54500289205551	N/A	-1	0.139190476	0.031039612	0.278380952	1	1	TRUE	0.721619048	1	0.25	0.418866267862516	8.12613662419299
0.25	a homeless adult	an assassin	26	UKtrst	1	35	1	simplified	impersonal	k	No	7.93092537248339	N/A	-1	0.851590909	0.032314042	0.296818182	1	0	TRUE	0.703181818	0	0.25	-0.195211251709601	8.12613662419299
0.25	a pedophile	an addict	26	UKtrst	1	17	1	simplified	impersonal	k	No	8.34093322600088	N/A	-1	0.118520661	0.030406322	0.237041322	-1	1	FALSE	-0.762958678	1	0.25	0.214796594509947	8.12613663149093
0.25	an olympian	a thief	26	UKtrst	1	101	1	simplified	impersonal	d	Yes	8.43337670532313	N/A	-1	0.130849558	0.031560707	0.261699115	1	1	TRUE	0.738300885	1	0.25	0.307240081130137	8.12613662419299
0.25	a hooligan	a university student	26	UKtrst	1	5	1	simplified	impersonal	k	No	7.84384863815247	N/A	-1	0.858273504	0.031504583	0.283452991	-1	1	FALSE	-0.716547009	1	0.25	-0.284281736211066	8.12813037436354
0.25	a mentor	a hooligan	26	UKtrst	1	52	1	simplified	impersonal	d	Yes	7.44366368311559	N/A	-1	0.121487603	0.02848289	0.242975207	1	1	TRUE	0.757024793	1	0.25	-0.682472941077399	8.12613662419299
0.25	a billionaire	a rapist	26	UKtrst	1	47	1	simplified	impersonal	d	Yes	7.80180040190897	N/A	-1	0.891907563	0.028635424	0.216184874	1	1	TRUE	0.783815126	1	0.25	-0.324336222284017	8.12613662419299
0.25	an orphan	a hooligan	26	UKtrst	1	119	1	simplified	impersonal	d	Yes	7.93951526066241	N/A	-1	0.101254237	0.02776511	0.202508475	1	1	TRUE	0.797491525	1	0.25	-0.186621363530583	8.12613662419299
0.25	an assassin	a judge	26	UKtrst	1	76	1	simplified	impersonal	k	No	7.85631957140659	N/A	-1	0.861274194	0.031699444	0.277451613	-1	1	FALSE	-0.722548387	1	0.25	-0.269817052786402	8.12613662419299
0.25	a judge	an assassin	26	UKtrst	1	83	1	simplified	impersonal	d	Yes	8.19643681123503	N/A	-1	0.861274194	0.031699444	0.277451613	1	1	TRUE	0.722548387	1	0.25	0.0703001870420383	8.12613662419299
0.25	a terrorist	a celebrity	26	UKtrst	1	100	1	simplified	impersonal	k	No	7.7484600238997	N/A	-1	0.869756757	0.03200262	0.260486486	-1	1	FALSE	-0.739513514	1	0.25	-0.377676600293293	8.12613662419299
0.35	an adult	a convict	26	UKtrst	1	62	1	simplified	impersonal	d	Yes	7.59488438721652	N/A	-1	0.163779528	0.032443407	0.327559055	1	1	TRUE	0.672440945	1	0.35	-0.53125223697647	8.12613662419299
0.35	a thief	a judge	26	UKtrst	1	99	1	simplified	impersonal	k	No	8.24275634571448	N/A	-1	0.827621849	0.034056176	0.344756303	-1	1	FALSE	-0.655243697	1	0.35	0.116619721521488	8.12613662419299
0.35	a mentor	a convict	26	UKtrst	1	102	1	simplified	impersonal	d	Yes	7.89133075766189	N/A	-1	0.15851145	0.032027771	0.317022901	1	1	TRUE	0.682977099	1	0.35	-0.234805866531101	8.12613662419299
0.35	a hooligan	a homeless adult	26	UKtrst	1	94	1	simplified	impersonal	k	No	7.65728279297819	N/A	-1	0.160920635	0.031831146	0.32184127	-1	1	FALSE	-0.67815873	1	0.35	-0.468853831214799	8.12613662419299
0.35	a nun	a thief	26	UKtrst	1	29	1	simplified	impersonal	d	Yes	8.43944784279138	N/A	-1	0.824336066	0.034879285	0.351327869	1	1	TRUE	0.648672131	1	0.35	0.313311218598368	8.12613662419302
0.35	an addict	an orphan	26	UKtrst	1	93	1	simplified	impersonal	k	No	8.18032087477368	N/A	-1	0.167077586	0.034000282	0.334155172	-1	1	FALSE	-0.665844828	1	0.35	0.0541842505806951	8.12613662419299
0.35	an olympian	a convict	26	UKtrst	1	40	1	simplified	impersonal	d	Yes	7.56423847517049	N/A	-1	0.189569106	0.036098133	0.379138211	1	1	TRUE	0.620861789	1	0.35	-0.561898149022499	8.12613662419299
0.35	a member of parliament	a terrorist	26	UKtrst	1	73	1	simplified	impersonal	d	Yes	7.72797554210556	N/A	-1	0.844918182	0.034703099	0.310163636	1	1	TRUE	0.689836364	1	0.35	-0.398161082087431	8.12613662419299
0.35	a terrorist	a member of parliament	26	UKtrst	1	60	1	simplified	impersonal	k	No	7.53155238140729	N/A	-1	0.844918182	0.034703099	0.310163636	-1	1	FALSE	-0.689836364	1	0.35	-0.5945842427857	8.12613662419299
0.35	a terrorist	an addict	26	UKtrst	1	65	1	simplified	impersonal	k	No	8.45977592054629	N/A	-1	0.153724138	0.033502088	0.307448276	-1	1	FALSE	-0.692551724	1	0.35	0.333639296353297	8.12613662419299
0.35	an addict	an elderly person	26	UKtrst	1	118	1	simplified	impersonal	d	Yes	8.92145757894788	N/A	-1	0.179964912	0.037184824	0.359929825	-1	0	FALSE	-0.640070175	0	0.35	0.795320954754894	8.12613662419299
0.45	a soldier	a member of parliament	26	UKtrst	1	2	1	simplified	impersonal	d	Yes	8.64716826783798	N/A	-1	0.234396396	0.040706459	0.468792793	1	1	TRUE	0.531207207	1	0.45	0.475450174166028	8.17171809367196
0.45	an assassin	a celebrity	26	UKtrst	1	28	1	simplified	impersonal	k	No	8.31090675716845	N/A	-1	0.797811966	0.035682193	0.404376068	-1	1	FALSE	-0.595623932	1	0.45	0.184770132975384	8.12613662419307
0.45	an assassin	a member of parliament	26	UKtrst	1	1	1	simplified	impersonal	k	No	8.17018565287964	N/A	-1	0.767817391	0.039430886	0.464365217	-1	1	FALSE	-0.535634783	1	0.45	-0.0853191657750045	8.25550481865465
0.45	a member of parliament	a soldier	26	UKtrst	1	106	1	simplified	impersonal	k	No	8.37493814383537	N/A	-1	0.234396396	0.040706459	0.468792793	-1	1	FALSE	-0.531207207	1	0.45	0.248801519642377	8.12613662419299
0.45	an astronaut	an addict	26	UKtrst	1	116	1	simplified	impersonal	d	Yes	7.81480342948936	N/A	-1	0.241107438	0.037833444	0.482214876	1	1	TRUE	0.517785124	1	0.45	-0.31133319470363	8.12613662419299
0.45	a hooligan	a billionaire	26	UKtrst	1	59	1	simplified	impersonal	k	No	8.50774873258824	N/A	-1	0.777558559	0.039199493	0.444882883	-1	1	FALSE	-0.555117117	1	0.45	0.381612108395249	8.12613662419299
0.45	a convict	a judge	26	UKtrst	1	66	1	simplified	impersonal	k	No	8.26281693767093	N/A	-1	0.201325581	0.034553151	0.402651163	-1	1	FALSE	-0.597348837	1	0.45	0.136680313477939	8.12613662419299
0.55	a hooligan	a member of parliament	26	UKtrst	1	10	1	simplified	impersonal	k	No	7.77401507725073	N/A	-1	0.707463636	0.044322941	0.585072727	-1	1	FALSE	-0.414927273	1	0.55	-0.352132373110292	8.12614745036102
0.55	a university student	an addict	26	UKtrst	1	19	1	simplified	impersonal	d	Yes	8.18729927015515	N/A	-1	0.747678261	0.040267682	0.504643478	1	1	TRUE	0.495356522	1	0.55	0.0611626450561715	8.12613662509898
0.55	a rapist	an assassin	26	UKtrst	1	22	1	simplified	impersonal	k	No	7.7596141506969	N/A	-1	0.268763359	0.038158567	0.537526718	-1	1	FALSE	-0.462473282	1	0.55	-0.366522473535715	8.12613662423262
0.55	a homeless adult	a soldier	26	UKtrst	1	81	1	simplified	impersonal	k	No	7.95331834656043	N/A	-1	0.277257813	0.040901469	0.554515625	-1	1	FALSE	-0.445484375	1	0.55	-0.172818277632558	8.12613662419299
0.55	a pedophile	a convict	26	UKtrst	1	110	1	simplified	impersonal	k	No	8.31825432879885	N/A	-1	0.702255639	0.041505171	0.595488722	-1	1	FALSE	-0.404511278	1	0.55	0.192117704605856	8.12613662419299
0.55	a member of parliament	a thief	26	UKtrst	1	23	1	simplified	impersonal	d	Yes	8.95234654322623	N/A	-1	0.730127273	0.043729581	0.539745455	1	1	TRUE	0.460254545	1	0.55	0.826209919019275	8.12613662420695
0.55	a thief	a member of parliament	26	UKtrst	1	26	1	simplified	impersonal	k	No	7.63964228785801	N/A	-1	0.730127273	0.043729581	0.539745455	-1	1	FALSE	-0.460254545	1	0.55	-0.486494336335587	8.1261366241936
0.55	an orphan	a member of parliament	26	UKtrst	1	15	1	simplified	impersonal	k	No	8.00936307663004	N/A	-1	0.258554545	0.040329428	0.517109091	1	0	TRUE	0.482890909	0	0.55	-0.116773606349605	8.12613668297965
0.55	a terrorist	a thief	26	UKtrst	1	39	1	simplified	impersonal	k	No	7.68017564043659	N/A	-1	0.267127119	0.0412262	0.534254237	-1	1	FALSE	-0.465745763	1	0.55	-0.445960983756399	8.12613662419299
0.55	a soldier	a homeless adult	26	UKtrst	1	86	1	simplified	impersonal	d	Yes	8.72404474595347	N/A	-1	0.277257813	0.040901469	0.554515625	1	1	TRUE	0.445484375	1	0.55	0.597908121760479	8.12613662419299
0.55	a convict	a pedophile	26	UKtrst	1	69	1	simplified	impersonal	d	Yes	8.38022733634308	N/A	-1	0.702255639	0.041505171	0.595488722	1	1	TRUE	0.404511278	1	0.55	0.25409071215009	8.12613662419299
0.55	a member of parliament	an orphan	26	UKtrst	1	38	1	simplified	impersonal	k	No	8.27537637483641	N/A	-1	0.258554545	0.040329428	0.517109091	-1	1	FALSE	-0.482890909	1	0.55	0.149239750643417	8.12613662419299
0.65	an addict	a judge	26	UKtrst	1	96	1	simplified	impersonal	k	No	9.09571484613488	N/A	-1	0.670290598	0.04306506	0.659418803	-1	1	FALSE	-0.340581197	1	0.65	0.969578221941889	8.12613662419299
0.65	a hooligan	an addict	26	UKtrst	1	55	1	simplified	impersonal	k	No	8.43032725839458	N/A	-1	0.316758621	0.043130591	0.633517241	-1	1	FALSE	-0.366482759	1	0.65	0.304190634201586	8.12613662419299
0.65	a nun	an orphan	26	UKtrst	1	32	1	simplified	impersonal	k	No	8.43944784279138	N/A	-1	0.310721311	0.042338439	0.621442623	-1	1	FALSE	-0.378557377	1	0.65	0.313311218598393	8.12613662419299
0.65	an elderly person	a homeless adult	26	UKtrst	1	58	1	simplified	impersonal	k	No	8.61974977974133	N/A	-1	0.317927419	0.04210367	0.635854839	1	0	TRUE	0.364145161	0	0.65	0.49361315554834	8.12613662419299
0.65	a billionaire	a soldier	26	UKtrst	1	16	1	simplified	impersonal	k	No	8.17835816560584	N/A	-1	0.333123894	0.044163154	0.666247788	-1	1	FALSE	-0.333752212	1	0.65	0.0522215207000087	8.12613664490583
0.65	an addict	a homeless adult	26	UKtrst	1	82	1	simplified	impersonal	d	Yes	8.29579811063615	N/A	-1	0.664516129	0.041885031	0.670967742	-1	0	FALSE	-0.329032258	0	0.65	0.169661486443156	8.12613662419299
0.65	an olympian	an orphan	26	UKtrst	1	115	1	simplified	impersonal	d	Yes	9.16659744902826	N/A	-1	0.322433628	0.043465563	0.644867257	-1	0	FALSE	-0.355132743	0	0.65	1.04046082483528	8.12613662419299
0.65	a billionaire	an addict	26	UKtrst	1	109	1	simplified	impersonal	d	Yes	8.50653661122771	N/A	-1	0.665	0.045195051	0.67	1	1	TRUE	0.33	1	0.65	0.380399987034719	8.12613662419299
0.65	a homeless adult	an orphan	26	UKtrst	1	120	1	simplified	impersonal	k	No	8.17470288246946	N/A	-1	0.308401575	0.041915693	0.61680315	-1	1	FALSE	-0.38319685	1	0.65	0.0485662582764714	8.12613662419299
0.65	a terrorist	a pedophile	26	UKtrst	1	84	1	simplified	impersonal	d	Yes	8.49576524400262	N/A	-1	0.304528455	0.040227584	0.609056911	1	1	TRUE	0.390943089	1	0.65	0.369628619809628	8.12613662419299
0.65	an orphan	a homeless adult	26	UKtrst	1	105	1	simplified	impersonal	d	Yes	7.94803199063728	N/A	-1	0.308401575	0.041915693	0.61680315	1	1	TRUE	0.38319685	1	0.65	-0.178104633555706	8.12613662419299
0.75	a university student	a soldier	26	UKtrst	1	20	1	simplified	impersonal	d	Yes	8.89521858376562	N/A	-1	0.371211864	0.044719783	0.742423729	-1	0	FALSE	-0.257576271	0	0.75	0.769081959253416	8.1261366245122
0.75	an orphan	a billionaire	26	UKtrst	1	34	1	simplified	impersonal	k	No	8.73343296641365	N/A	-1	0.362955357	0.045849382	0.725910714	1	0	TRUE	0.274089286	0	0.75	0.607296342220662	8.12613662419299
0.75	a judge	an adult	26	UKtrst	1	4	1	simplified	impersonal	d	Yes	8.1744211526465	N/A	-1	0.391525424	0.042230977	0.783050847	-1	0	FALSE	-0.216949153	0	0.75	0.0426259162428924	8.1317952364036
0.75	a mentor	a soldier	26	UKtrst	1	37	1	simplified	impersonal	k	No	7.97728198675515	N/A	-1	0.367056911	0.043529554	0.734113821	-1	1	FALSE	-0.265886179	1	0.75	-0.148854637437839	8.12613662419299
0.75	an elderly person	an olympian	26	UKtrst	1	88	1	simplified	impersonal	k	No	7.46908388492123	N/A	-1	0.616603604	0.04506105	0.766792793	1	0	TRUE	0.233207207	0	0.75	-0.657052739271755	8.12613662419299
0.75	a celebrity	a police officer	26	UKtrst	1	42	1	simplified	impersonal	k	No	7.69984240739699	N/A	-1	0.358876033	0.041555957	0.717752066	-1	1	FALSE	-0.282247934	1	0.75	-0.426294216796004	8.12613662419299
0.75	a soldier	a university student	26	UKtrst	1	14	1	simplified	impersonal	k	No	8.68659835627697	N/A	-1	0.371211864	0.044719783	0.742423729	1	0	TRUE	0.257576271	0	0.75	0.560461565237137	8.12613679103983
0.75	a police officer	a celebrity	26	UKtrst	1	50	1	simplified	impersonal	d	Yes	8.09773057366422	N/A	-1	0.358876033	0.041555957	0.717752066	1	1	TRUE	0.282247934	1	0.75	-0.0284060505287709	8.12613662419299
0.75	an orphan	an astronaut	26	UKtrst	1	117	1	simplified	impersonal	k	No	8.04430540699064	N/A	-1	0.354886179	0.043317075	0.709772358	1	0	TRUE	0.290227642	0	0.75	-0.0818312172023514	8.12613662419299
0.75	an elderly person	a billionaire	26	UKtrst	1	27	1	simplified	impersonal	k	No	7.85088266480985	N/A	-1	0.365798165	0.045269409	0.73159633	1	0	TRUE	0.26840367	0	0.75	-0.275253959383353	8.1261366241932
0.75	a convict	an addict	26	UKtrst	1	11	1	simplified	impersonal	k	No	7.96970358327866	N/A	-1	0.369587302	0.042051098	0.739174603	-1	1	FALSE	-0.260825397	1	0.75	-0.156436855396321	8.12614043867498
0.75	an olympian	an elderly person	26	UKtrst	1	87	1	simplified	impersonal	d	Yes	8.39231000926955	N/A	-1	0.616603604	0.04506105	0.766792793	-1	0	FALSE	-0.233207207	0	0.75	0.266173385076558	8.12613662419299
0.75	a mentor	a homeless adult	26	UKtrst	1	114	1	simplified	impersonal	d	Yes	8.59396903021829	N/A	-1	0.367046154	0.040821089	0.734092308	1	1	TRUE	0.265907692	1	0.75	0.467832406025298	8.12613662419299
0.75	a judge	a member of parliament	26	UKtrst	1	103	1	simplified	impersonal	d	Yes	8.50491816054062	N/A	-1	0.374252252	0.046296704	0.748504505	1	1	TRUE	0.251495495	1	0.75	0.378781536347635	8.12613662419299
0.75	a celebrity	a mentor	26	UKtrst	1	36	1	simplified	impersonal	k	No	8.12148037475075	N/A	-1	0.35273913	0.043045041	0.705478261	-1	1	FALSE	-0.294521739	1	0.75	-0.00465624944223819	8.12613662419299
0.85	a university student	a judge	26	UKtrst	1	67	1	simplified	impersonal	d	Yes	8.46294817656384	N/A	-1	0.559423729	0.046173254	0.881152542	1	1	TRUE	0.118847458	1	0.85	0.336811552370852	8.12613662419299
0.85	a nun	an astronaut	26	UKtrst	1	108	1	simplified	impersonal	k	No	8.18535022317869	N/A	-1	0.415456693	0.043674601	0.830913386	-1	1	FALSE	-0.169086614	1	0.85	0.0592135989856963	8.12613662419299
0.85	an astronaut	a nun	26	UKtrst	1	68	1	simplified	impersonal	d	Yes	7.56941179245071	N/A	-1	0.415456693	0.043674601	0.830913386	1	1	TRUE	0.169086614	1	0.85	-0.556724831742278	8.12613662419299
0.85	a celebrity	a judge	26	UKtrst	1	63	1	simplified	impersonal	k	No	7.61134771740362	N/A	-1	0.419758929	0.047716839	0.839517857	-1	1	FALSE	-0.160482143	1	0.85	-0.514788906789368	8.12613662419299
0.85	a celebrity	a homeless adult	26	UKtrst	1	91	1	simplified	impersonal	d	Yes	7.52023455647463	N/A	-1	0.436633333	0.045219088	0.873266667	-1	0	FALSE	-0.126733333	0	0.85	-0.605902067718362	8.12613662419299
0.85	a nun	a celebrity	26	UKtrst	1	75	1	simplified	impersonal	d	Yes	7.97143099776935	N/A	-1	0.44053913	0.04543181	0.881078261	1	1	TRUE	0.118921739	1	0.85	-0.154705626423639	8.12613662419299
0.85	an elderly person	a university student	26	UKtrst	1	46	1	simplified	impersonal	k	No	7.53101633207792	N/A	-1	0.413721739	0.044873733	0.827443478	1	0	TRUE	0.172556522	0	0.85	-0.595120292115074	8.12613662419299
0.85	an orphan	a mentor	26	UKtrst	1	41	1	simplified	impersonal	k	No	7.92044650514261	N/A	-1	0.408352459	0.045560157	0.816704918	1	0	TRUE	0.183295082	0	0.85	-0.205690119050383	8.12613662419299
0.85	an astronaut	a homeless adult	26	UKtrst	1	8	1	simplified	impersonal	k	No	8.3485378253861	N/A	-1	0.419412214	0.043392138	0.838824427	1	0	TRUE	0.161175573	0	0.85	0.22231399383038	8.12622383155572
0.85	a police officer	a billionaire	26	UKtrst	1	97	1	simplified	impersonal	k	No	8.07713663853845	N/A	-1	0.420041322	0.044176586	0.840082645	1	0	TRUE	0.159917355	0	0.85	-0.048999985654536	8.12613662419299
0.85	a university student	an elderly person	26	UKtrst	1	24	1	simplified	impersonal	d	Yes	8.65277248565806	N/A	-1	0.413721739	0.044873733	0.827443478	-1	0	FALSE	-0.172556522	0	0.85	0.526635861460152	8.12613662419791
0.85	a university student	a homeless adult	26	UKtrst	1	85	1	simplified	impersonal	d	Yes	7.69848278788095	N/A	-1	0.578496	0.044860031	0.843008	1	1	TRUE	0.156992	1	0.85	-0.427653836312043	8.12613662419299
0.85	an elderly person	a police officer	26	UKtrst	1	33	1	simplified	impersonal	k	No	8.03915739047324	N/A	-1	0.41612	0.044212808	0.83224	1	0	TRUE	0.16776	0	0.85	-0.0869792337197524	8.12613662419299
0.85	a mentor	a nun	26	UKtrst	1	45	1	simplified	impersonal	d	Yes	7.54591815120932	N/A	-1	0.570336	0.044015275	0.859328	1	1	TRUE	0.140672	1	0.85	-0.580218472983667	8.12613662419299
0.85	a homeless adult	a university student	26	UKtrst	1	98	1	simplified	impersonal	k	No	7.68017564043659	N/A	-1	0.578496	0.044860031	0.843008	-1	1	FALSE	-0.156992	1	0.85	-0.445960983756399	8.12613662419299
0.95	an adult	a mentor	26	UKtrst	1	31	1	simplified	impersonal	k	No	8.4069317971587	N/A	-1	0.480545455	0.046604891	0.961090909	1	0	TRUE	0.038909091	0	0.95	0.280795172965707	8.12613662419299
0.95	an astronaut	an olympian	26	UKtrst	1	90	1	simplified	impersonal	d	Yes	8.05261481881557	N/A	-1	0.507847458	0.046818521	0.984305085	1	1	TRUE	0.015694915	1	0.95	-0.0735218053774229	8.12613662419299
0.95	a billionaire	a nun	26	UKtrst	1	13	1	simplified	impersonal	d	Yes	8.16507925880507	N/A	-1	0.501443478	0.046949754	0.997113043	1	1	TRUE	0.00288695699999997	1	0.95	0.0389421610715246	8.12613709773354
0.95	an elderly person	a soldier	26	UKtrst	1	21	1	simplified	impersonal	k	No	8.02845516411425	N/A	-1	0.515145299	0.046544463	0.969709402	-1	1	FALSE	-0.030290598	1	0.95	-0.0976814601912093	8.12613662430546
0.95	an orphan	a soldier	26	UKtrst	1	43	1	simplified	impersonal	k	No	8.40020983593042	N/A	-1	0.51975	0.045540706	0.9605	-1	1	FALSE	-0.0395	1	0.95	0.274073211737429	8.12613662419299
0.95	an olympian	a nun	26	UKtrst	1	71	1	simplified	impersonal	d	Yes	7.9820748750812	N/A	-1	0.451598291	0.047128701	0.903196581	1	1	TRUE	0.096803419	1	0.95	-0.144061749111787	8.12613662419299
0.95	an adult	a university student	26	UKtrst	1	6	1	simplified	impersonal	k	No	7.99260665240021	N/A	-1	0.487112069	0.047949103	0.974224138	1	0	TRUE	0.025775862	0	0.95	-0.134232447876069	8.12683910027628
0.95	a soldier	an elderly person	26	UKtrst	1	95	1	simplified	impersonal	d	Yes	7.8995244720322	N/A	-1	0.515145299	0.046544463	0.969709402	1	1	TRUE	0.030290598	1	0.95	-0.226612152160792	8.12613662419299
0.95	a mentor	a university student	26	UKtrst	1	113	1	simplified	impersonal	d	Yes	8.16593213732158	N/A	-1	0.479666667	0.045695603	0.959333333	1	1	TRUE	0.040666667	1	0.95	0.0397955131285954	8.12613662419299
0.95	a convict	a thief	26	UKtrst	1	92	1	simplified	impersonal	k	No	8.67590488257106	N/A	-1	0.532835938	0.045321554	0.934328125	1	0	TRUE	0.065671875	0	0.95	0.549768258378069	8.12613662419299
0.05	an orphan	a pedophile	28	UKtrst	1	111	1	simplified	impersonal	d	Yes	7.53636393840451	N/A	-1	0.028674797	0.014648858	0.057349593	1	1	TRUE	0.942650407	1	0.05	-0.244573143801539	7.78093708220605
0.05	an astronaut	a pedophile	28	UKtrst	1	57	1	simplified	impersonal	d	Yes	7.37462901521894	N/A	-1	0.0383125	0.016794886	0.076625	1	1	TRUE	0.923375	1	0.05	-0.488099891510982	7.86272890672993
0.05	a rapist	a soldier	28	UKtrst	1	60	1	simplified	impersonal	k	No	7.35564110297425	N/A	-1	0.03388189	0.015766132	0.06776378	-1	1	FALSE	-0.93223622	1	0.05	-0.502521340496858	7.85816244347111
0.05	a mentor	a rapist	28	UKtrst	1	59	1	simplified	impersonal	d	Yes	8.10228362448007	N/A	-1	0.95027907	0.019544972	0.09944186	1	1	TRUE	0.90055814	1	0.05	0.242599321341008	7.85968430313906
0.05	a rapist	an adult	28	UKtrst	1	16	1	simplified	impersonal	k	No	7.49665243816828	N/A	-1	0.04288	0.018679361	0.08576	-1	1	FALSE	-0.91424	1	0.05	-0.428751405223283	7.92540384339157
0.05	a pedophile	a university student	28	UKtrst	1	119	1	simplified	impersonal	k	No	7.96171881598136	N/A	-1	0.961213115	0.017642591	0.07757377	-1	1	FALSE	-0.92242623	1	0.05	0.192826464319675	7.76889235166169
0.05	a rapist	an astronaut	28	UKtrst	1	71	1	simplified	impersonal	k	No	7.59438124255182	N/A	-1	0.047638462	0.018454336	0.095276923	-1	1	FALSE	-0.904723077	1	0.05	-0.247060180611358	7.84144142316318
0.05	a rapist	an elderly person	28	UKtrst	1	97	1	simplified	impersonal	k	No	7.31654817718298	N/A	-1	0.039292683	0.018007748	0.078585366	-1	1	FALSE	-0.921414634	1	0.05	-0.485512134966755	7.80206031214973
0.05	a pedophile	a mentor	28	UKtrst	1	105	1	simplified	impersonal	k	No	7.58781721999343	N/A	-1	0.961666667	0.017395087	0.076666667	-1	1	FALSE	-0.923333333	1	0.05	-0.202165663286509	7.78998288327994
0.05	a terrorist	an orphan	28	UKtrst	1	72	1	simplified	impersonal	k	No	7.78696700261487	N/A	-1	0.029864407	0.016063776	0.059728814	-1	1	FALSE	-0.940271186	1	0.05	-0.0529560932236599	7.83992309583853
0.05	a pedophile	an adult	28	UKtrst	1	77	1	simplified	impersonal	k	No	7.9098566672694	N/A	-1	0.034344262	0.015825463	0.068688525	-1	1	FALSE	-0.931311475	1	0.05	0.0775207993185134	7.83233586795089
0.05	a pedophile	an astronaut	28	UKtrst	1	52	1	simplified	impersonal	k	No	7.66996199547358	N/A	-1	0.0383125	0.016794886	0.076625	-1	1	FALSE	-0.923375	1	0.05	-0.200383581051911	7.87034557652549
0.15	an assassin	a mentor	28	UKtrst	1	102	1	simplified	impersonal	k	No	8.07402621612406	N/A	-1	0.900732283	0.027937936	0.198535433	-1	1	FALSE	-0.801464567	1	0.15	0.279516489465765	7.7945097266583
0.15	a university student	an assassin	28	UKtrst	1	49	1	simplified	impersonal	d	Yes	7.755767170103	N/A	-1	0.902647541	0.026180889	0.194704918	1	1	TRUE	0.805295082	1	0.15	-0.119151949431803	7.8749191195348
0.15	an assassin	a university student	28	UKtrst	1	58	1	simplified	impersonal	k	No	7.64300363556072	N/A	-1	0.902647541	0.026180889	0.194704918	-1	1	FALSE	-0.805295082	1	0.15	-0.218202821978924	7.86120645753964
0.15	a pedophile	a billionaire	28	UKtrst	1	93	1	simplified	impersonal	k	No	8.05896001776942	N/A	-1	0.911060345	0.026754909	0.17787931	-1	1	FALSE	-0.82212069	1	0.15	0.250853971274346	7.80810604649507
0.15	a pedophile	a homeless adult	28	UKtrst	1	99	1	simplified	impersonal	k	No	7.64730883235624	N/A	-1	0.924580153	0.022807094	0.150839695	-1	1	FALSE	-0.849160305	1	0.15	-0.151730368278105	7.79903920063434
0.15	a soldier	a hooligan	28	UKtrst	1	1	1	simplified	impersonal	d	Yes	7.64012317269536	N/A	-1	0.098336134	0.02677938	0.196672269	1	1	TRUE	0.803327731	1	0.15	-0.308335139353715	7.94845831204908
0.15	a police officer	a terrorist	28	UKtrst	1	112	1	simplified	impersonal	d	Yes	7.36833968631138	N/A	-1	0.935637795	0.022475966	0.128724409	1	1	TRUE	0.871275591	1	0.15	-0.411090783940858	7.77943047025224
0.15	a hooligan	a soldier	28	UKtrst	1	32	1	simplified	impersonal	k	No	7.95014988765202	N/A	-1	0.098336134	0.02677938	0.196672269	-1	1	FALSE	-0.803327731	1	0.15	0.0492637773260629	7.90088611032596
0.15	a judge	a rapist	28	UKtrst	1	3	1	simplified	impersonal	d	Yes	7.89766815072691	N/A	-1	0.929198413	0.022152029	0.141603175	1	1	TRUE	0.858396825	1	0.15	-0.0477123616160213	7.94538051234293
0.15	an elderly person	a thief	28	UKtrst	1	41	1	simplified	impersonal	d	Yes	7.56268124672188	N/A	-1	0.089508621	0.026737943	0.179017241	1	1	TRUE	0.820982759	1	0.15	-0.324446985072419	7.8871282317943
0.15	a soldier	a thief	28	UKtrst	1	25	1	simplified	impersonal	d	Yes	7.55642796944025	N/A	-1	0.906613445	0.025824002	0.186773109	1	1	TRUE	0.813226891	1	0.15	-0.35517530248767	7.91160327192792
0.15	a rapist	a police officer	28	UKtrst	1	27	1	simplified	impersonal	k	No	7.68708015578313	N/A	-1	0.93637037	0.021034903	0.127259259	-1	1	FALSE	-0.872740741	1	0.15	-0.221459587436507	7.90853974321964
0.15	an orphan	an assassin	28	UKtrst	1	21	1	simplified	impersonal	d	Yes	7.56475701290573	N/A	-1	0.061959677	0.021973305	0.123919355	1	1	TRUE	0.876080645	1	0.15	-0.352976877053088	7.91773388995882
0.15	a rapist	a university student	28	UKtrst	1	100	1	simplified	impersonal	k	No	7.26542972325395	N/A	-1	0.949314516	0.018977012	0.101370968	-1	1	FALSE	-0.898629032	1	0.15	-0.532099360338731	7.79752908359268
0.15	a rapist	an olympian	28	UKtrst	1	86	1	simplified	impersonal	k	No	7.44014668066269	N/A	-1	0.051741667	0.020462276	0.103483333	-1	1	FALSE	-0.896516667	1	0.15	-0.378550675862307	7.818697356525
0.15	an assassin	an elderly person	28	UKtrst	1	114	1	simplified	impersonal	k	No	7.62021477057445	N/A	-1	0.071272727	0.023150043	0.142545455	-1	1	FALSE	-0.857454545	1	0.15	-0.156203350883166	7.77641812145762
0.25	an olympian	a hooligan	28	UKtrst	1	34	1	simplified	impersonal	d	Yes	7.93666015522543	N/A	-1	0.146115044	0.033726456	0.292230088	1	1	TRUE	0.707769912	1	0.25	0.0388334237115657	7.89782673151386
0.25	an assassin	an adult	28	UKtrst	1	76	1	simplified	impersonal	k	No	7.4899708988348	N/A	-1	0.891219512	0.028783398	0.217560976	-1	1	FALSE	-0.782439024	1	0.25	-0.343881827051902	7.8338527258867
0.25	an assassin	a nun	28	UKtrst	1	62	1	simplified	impersonal	k	No	8.22335889947926	N/A	-1	0.856574803	0.028804434	0.286850394	-1	1	FALSE	-0.713149606	1	0.25	0.36823929137444	7.85511960810482
0.25	an orphan	a convict	28	UKtrst	1	56	1	simplified	impersonal	d	Yes	7.68386398025643	N/A	-1	0.131296875	0.028813159	0.26259375	1	1	TRUE	0.73740625	1	0.25	-0.180387670510576	7.86425165076701
0.25	an addict	a pedophile	28	UKtrst	1	61	1	simplified	impersonal	d	Yes	7.73280753042202	N/A	-1	0.118520661	0.030406322	0.237041322	1	1	TRUE	0.762958678	1	0.25	-0.123833348056694	7.85664087847872
0.25	a celebrity	a rapist	28	UKtrst	1	118	1	simplified	impersonal	d	Yes	7.29505641646263	N/A	-1	0.874705882	0.029577311	0.250588235	1	1	TRUE	0.749411765	1	0.25	-0.475340506276548	7.77039692273918
0.25	a hooligan	an adult	28	UKtrst	1	45	1	simplified	impersonal	k	No	8.21365270303	N/A	-1	0.127264957	0.030107204	0.254529915	-1	1	FALSE	-0.745470085	1	0.25	0.332631391627544	7.88102131140245
0.25	a mentor	a hooligan	28	UKtrst	1	14	1	simplified	impersonal	d	Yes	7.05703698169789	N/A	-1	0.121487603	0.02848289	0.242975207	1	1	TRUE	0.757024793	1	0.25	-0.871436923043466	7.92847390474136
0.25	a celebrity	a pedophile	28	UKtrst	1	37	1	simplified	impersonal	d	Yes	7.96171881598136	N/A	-1	0.891396552	0.028483929	0.217206897	1	1	TRUE	0.782793103	1	0.25	0.0684789316069336	7.89323988437443
0.25	a rapist	a billionaire	28	UKtrst	1	107	1	simplified	impersonal	k	No	7.88231491898027	N/A	-1	0.891907563	0.028635424	0.216184874	-1	1	FALSE	-0.783815126	1	0.25	0.0953484705972398	7.78696644838303
0.25	a mentor	a thief	28	UKtrst	1	12	1	simplified	impersonal	d	Yes	7.98548435673382	N/A	-1	0.874157025	0.02898668	0.25168595	1	1	TRUE	0.74831405	1	0.25	0.0539392013939155	7.93154515533991
0.25	a terrorist	a celebrity	28	UKtrst	1	83	1	simplified	impersonal	k	No	7.4593388952203	N/A	-1	0.869756757	0.03200262	0.260486486	-1	1	FALSE	-0.739513514	1	0.25	-0.363901990974289	7.82324088619458
0.25	a nun	an assassin	28	UKtrst	1	68	1	simplified	impersonal	d	Yes	7.68340368105383	N/A	-1	0.856574803	0.028804434	0.286850394	1	1	TRUE	0.713149606	1	0.25	-0.162594488602261	7.84599816965609
0.25	a police officer	a hooligan	28	UKtrst	1	113	1	simplified	impersonal	d	Yes	7.21597500265147	N/A	-1	0.141937008	0.029939677	0.283874016	1	1	TRUE	0.716125984	1	0.25	-0.561949147370125	7.77792415002159
0.35	a hooligan	a nun	28	UKtrst	1	22	1	simplified	impersonal	k	No	7.66902828858968	N/A	-1	0.159852459	0.032052521	0.319704918	-1	1	FALSE	-0.680295082	1	0.35	-0.247172501640955	7.91620079023064
0.35	a convict	a police officer	28	UKtrst	1	53	1	simplified	impersonal	k	No	8.04846874366888	N/A	-1	0.174080292	0.031944922	0.348160584	-1	1	FALSE	-0.651839416	1	0.35	0.179647091138787	7.8688216525301
0.35	an addict	a terrorist	28	UKtrst	1	20	1	simplified	impersonal	d	Yes	7.70120018085745	N/A	-1	0.153724138	0.033502088	0.307448276	1	1	TRUE	0.692551724	1	0.35	-0.218067105738994	7.91926728659644
0.35	a convict	an olympian	28	UKtrst	1	18	1	simplified	impersonal	k	No	7.80180040190897	N/A	-1	0.189569106	0.036098133	0.379138211	-1	1	FALSE	-0.620861789	1	0.35	-0.120534568921062	7.92233497083003
0.35	a terrorist	a member of parliament	28	UKtrst	1	23	1	simplified	impersonal	k	No	7.80588204022862	N/A	-1	0.844918182	0.034703099	0.310163636	-1	1	FALSE	-0.689836364	1	0.35	-0.108785947125794	7.91466798735441
0.35	an assassin	a billionaire	28	UKtrst	1	63	1	simplified	impersonal	k	No	7.85166117788927	N/A	-1	0.829521368	0.036699945	0.340957265	-1	1	FALSE	-0.659042735	1	0.35	-0.00193745440310877	7.85359863229237
0.35	a thief	a homeless adult	28	UKtrst	1	39	1	simplified	impersonal	k	No	8.03365842788615	N/A	-1	0.812293651	0.034013809	0.375412698	-1	1	FALSE	-0.624587302	1	0.35	0.143474961554434	7.89018346633172
0.35	an addict	a soldier	28	UKtrst	1	15	1	simplified	impersonal	d	Yes	8.75115798136203	N/A	-1	0.811487179	0.036333267	0.377025641	-1	0	FALSE	-0.622974359	0	0.35	0.82421925592288	7.92693872543915
0.35	a convict	an adult	28	UKtrst	1	51	1	simplified	impersonal	k	No	7.81923445385907	N/A	-1	0.163779528	0.032443407	0.327559055	-1	1	FALSE	-0.672440945	1	0.35	-0.0526353417942271	7.8718697956533
0.35	a judge	a thief	28	UKtrst	1	8	1	simplified	impersonal	d	Yes	7.77401507725073	N/A	-1	0.827621849	0.034056176	0.344756303	1	1	TRUE	0.655243697	1	0.35	-0.163676148875454	7.93769122612618
0.35	a thief	a nun	28	UKtrst	1	79	1	simplified	impersonal	k	No	7.50328963067508	N/A	-1	0.824336066	0.034879285	0.351327869	-1	1	FALSE	-0.648672131	1	0.35	-0.326013402468544	7.82930303314363
0.35	an astronaut	a convict	28	UKtrst	1	6	1	simplified	impersonal	d	Yes	7.8811822022271	N/A	-1	0.175218045	0.033929648	0.35043609	1	1	TRUE	0.64956391	1	0.35	-0.0595838450086967	7.9407660472358
0.45	a judge	a convict	28	UKtrst	1	28	1	simplified	impersonal	d	Yes	7.78197323443438	N/A	-1	0.201325581	0.034553151	0.402651163	1	1	TRUE	0.597348837	1	0.45	-0.12503518930684	7.90700842374122
0.45	a thief	a rapist	28	UKtrst	1	40	1	simplified	impersonal	d	Yes	7.64730883235624	N/A	-1	0.230256	0.037654965	0.460512	1	1	TRUE	0.539488	1	0.45	-0.241346868797256	7.88865570115349
0.45	a member of parliament	an assassin	28	UKtrst	1	30	1	simplified	impersonal	d	Yes	7.91607809630279	N/A	-1	0.767817391	0.039430886	0.464365217	1	1	TRUE	0.535634783	1	0.45	0.0121314220540683	7.90394667424872
0.45	an addict	an astronaut	28	UKtrst	1	50	1	simplified	impersonal	d	Yes	8.64347335732657	N/A	-1	0.241107438	0.037833444	0.482214876	-1	0	FALSE	-0.517785124	0	0.45	0.770079047355889	7.87339430997068
0.55	a rapist	an assassin	28	UKtrst	1	19	1	simplified	impersonal	k	No	8.39140318535794	N/A	-1	0.268763359	0.038158567	0.537526718	-1	1	FALSE	-0.462473282	1	0.55	0.470602205156929	7.92080098020101
0.55	a member of parliament	an elderly person	28	UKtrst	1	75	1	simplified	impersonal	k	No	8.08425410630732	N/A	-1	0.266703704	0.041137924	0.533407407	-1	1	FALSE	-0.466592593	1	0.55	0.248884228720842	7.83536987758648
0.55	a mentor	an addict	28	UKtrst	1	109	1	simplified	impersonal	d	Yes	7.56527528189893	N/A	-1	0.746537815	0.04073616	0.50692437	1	1	TRUE	0.49307563	1	0.55	-0.218675899610228	7.78395118150916
0.55	a member of parliament	a hooligan	28	UKtrst	1	5	1	simplified	impersonal	d	Yes	8.43988008831357	N/A	-1	0.707463636	0.044322941	0.585072727	1	1	TRUE	0.414927273	1	0.55	0.497576183892088	7.94230390442148
0.55	a celebrity	a hooligan	28	UKtrst	1	78	1	simplified	impersonal	d	Yes	7.80751004221619	N/A	-1	0.744261261	0.039856902	0.511477477	1	1	TRUE	0.488522523	1	0.55	-0.0233092615059602	7.83081930372215
0.65	a nun	an elderly person	28	UKtrst	1	31	1	simplified	impersonal	d	Yes	8.43598313599069	N/A	-1	0.321791667	0.043644878	0.643583333	-1	0	FALSE	-0.356416667	0	0.65	0.533566891870881	7.90241624411981
0.65	a nun	an addict	28	UKtrst	1	55	1	simplified	impersonal	d	Yes	7.9820748750812	N/A	-1	0.66615	0.044809062	0.6677	1	1	TRUE	0.3323	1	0.65	0.116300185373219	7.86577468970798
0.65	a homeless adult	an addict	28	UKtrst	1	74	1	simplified	impersonal	d	Yes	8.13123654969612	N/A	-1	0.664516129	0.041885031	0.670967742	1	1	TRUE	0.329032258	1	0.65	0.294349226589014	7.8368873231071
0.65	a judge	an addict	28	UKtrst	1	104	1	simplified	impersonal	d	Yes	7.59438124255182	N/A	-1	0.670290598	0.04306506	0.659418803	1	1	TRUE	0.340581197	1	0.65	-0.197110296326599	7.79149153887842
0.65	a rapist	a convict	28	UKtrst	1	44	1	simplified	impersonal	k	No	8.51839247199172	N/A	-1	0.683222222	0.04051228	0.633555556	-1	1	FALSE	-0.366444444	1	0.65	0.635844873933525	7.88254759805819
0.65	a terrorist	a convict	28	UKtrst	1	92	1	simplified	impersonal	k	No	8.02910705461974	N/A	-1	0.6673125	0.042477667	0.665375	-1	1	FALSE	-0.334625	1	0.65	0.219488842683858	7.80961821193588
0.65	a terrorist	a rapist	28	UKtrst	1	106	1	simplified	impersonal	d	Yes	9.00736702745136	N/A	-1	0.327384	0.041441162	0.654768	1	1	TRUE	0.345232	1	0.65	1.21889250765103	7.78847451980033
0.65	a celebrity	an elderly person	28	UKtrst	1	81	1	simplified	impersonal	k	No	7.88570539124302	N/A	-1	0.306889908	0.045726782	0.613779817	-1	1	FALSE	-0.386220183	1	0.65	0.0594340185332483	7.82627137270977
0.65	an orphan	a homeless adult	28	UKtrst	1	89	1	simplified	impersonal	d	Yes	8.08917567883756	N/A	-1	0.308401575	0.041915693	0.61680315	1	1	TRUE	0.38319685	1	0.65	0.275019213221295	7.81415646561627
0.65	a convict	a terrorist	28	UKtrst	1	48	1	simplified	impersonal	k	No	8.32603268595508	N/A	-1	0.6673125	0.042477667	0.665375	1	0	TRUE	0.334625	0	0.65	0.449588461552236	7.87644422440284
0.65	an adult	a member of parliament	28	UKtrst	1	116	1	simplified	impersonal	d	Yes	7.81520706218909	N/A	-1	0.314082569	0.045603329	0.628165138	1	1	TRUE	0.371834862	1	0.65	0.041800123085264	7.77340693910382
0.65	a hooligan	an addict	28	UKtrst	1	17	1	simplified	impersonal	k	No	8.20576472523446	N/A	-1	0.316758621	0.043130591	0.633517241	-1	1	FALSE	-0.366482759	1	0.65	0.281895466693414	7.92386925854104
0.65	a member of parliament	an astronaut	28	UKtrst	1	2	1	simplified	impersonal	k	No	8.67077227934454	N/A	-1	0.346626087	0.043980178	0.693252174	-1	1	FALSE	-0.306747826	1	0.65	0.723853016150473	7.94691926319407
0.75	a mentor	a soldier	28	UKtrst	1	108	1	simplified	impersonal	d	Yes	8.57243866564222	N/A	-1	0.367056911	0.043529554	0.734113821	-1	0	FALSE	-0.265886179	0	0.75	0.78697999667073	7.78545866897149
0.75	a mentor	a celebrity	28	UKtrst	1	42	1	simplified	impersonal	d	Yes	7.37400185935016	N/A	-1	0.35273913	0.043045041	0.705478261	1	1	TRUE	0.294521739	1	0.75	-0.511599198846707	7.88560105819687
0.75	an elderly person	an olympian	28	UKtrst	1	43	1	simplified	impersonal	d	Yes	8.04269949689764	N/A	-1	0.616603604	0.04506105	0.766792793	1	1	TRUE	0.233207207	1	0.75	0.15862531659372	7.88407418030392
0.75	an astronaut	an elderly person	28	UKtrst	1	11	1	simplified	impersonal	k	No	7.46737106691756	N/A	-1	0.364818182	0.044435966	0.729636364	-1	1	FALSE	-0.270363636	1	0.75	-0.465710159833863	7.93308122675142
0.75	a police officer	a celebrity	28	UKtrst	1	24	1	simplified	impersonal	d	Yes	7.79564653633459	N/A	-1	0.358876033	0.041555957	0.717752066	1	1	TRUE	0.282247934	1	0.75	-0.117488944938071	7.91313548127266
0.75	an elderly person	a billionaire	28	UKtrst	1	7	1	simplified	impersonal	d	Yes	7.47193207824512	N/A	-1	0.365798165	0.045269409	0.73159633	1	1	TRUE	0.26840367	1	0.75	-0.46729640957813	7.93922848782325
0.75	a member of parliament	a judge	28	UKtrst	1	94	1	simplified	impersonal	k	No	7.63240112660145	N/A	-1	0.374252252	0.046296704	0.748504505	-1	1	FALSE	-0.251495495	1	0.75	-0.174193047251289	7.80659417385274
0.75	a soldier	a university student	28	UKtrst	1	101	1	simplified	impersonal	k	No	8.15334975799889	N/A	-1	0.371211864	0.044719783	0.742423729	1	0	TRUE	0.257576271	0	0.75	0.357330499046019	7.79601925895287
0.75	an adult	an orphan	28	UKtrst	1	103	1	simplified	impersonal	k	No	7.38336814699238	N/A	-1	0.395822034	0.04666366	0.791644068	-1	1	FALSE	-0.208355932	1	0.75	-0.409632339659957	7.79300048665234
0.75	a rapist	a hooligan	28	UKtrst	1	47	1	simplified	impersonal	k	No	7.81399567500279	N/A	-1	0.643832	0.04173883	0.712336	-1	1	FALSE	-0.287664	1	0.75	-0.0639739496292062	7.877969624632
0.75	a member of parliament	an olympian	28	UKtrst	1	67	1	simplified	impersonal	k	No	8.08671792030391	N/A	-1	0.3744	0.047977729	0.7488	-1	1	FALSE	-0.2512	1	0.75	0.239200246787326	7.84751767351658
0.75	a judge	a member of parliament	28	UKtrst	1	66	1	simplified	impersonal	d	Yes	7.63336964967958	N/A	-1	0.374252252	0.046296704	0.748504505	1	1	TRUE	0.251495495	1	0.75	-0.215667821973875	7.84903747165346
0.75	a terrorist	a hooligan	28	UKtrst	1	46	1	simplified	impersonal	k	No	7.9707403900071	N/A	-1	0.621059322	0.043965567	0.757881356	-1	1	FALSE	-0.242118644	1	0.75	0.0912450697276315	7.87949532027946
0.85	an astronaut	a homeless adult	28	UKtrst	1	91	1	simplified	impersonal	d	Yes	8.09742629859721	N/A	-1	0.419412214	0.043392138	0.838824427	1	1	TRUE	0.161175573	1	0.85	0.286295628365347	7.81113067023187
0.85	a police officer	an olympian	28	UKtrst	1	117	1	simplified	impersonal	d	Yes	7.71333788887187	N/A	-1	0.556885246	0.046017066	0.886229508	1	1	TRUE	0.113770492	1	0.85	-0.0585638963292094	7.77190178520108
0.85	an olympian	a university student	28	UKtrst	1	98	1	simplified	impersonal	k	No	8.2482674474469	N/A	-1	0.559589286	0.048694261	0.880821429	-1	1	FALSE	-0.119178571	1	0.85	0.44771783731242	7.80054961013448
0.85	an olympian	a police officer	28	UKtrst	1	110	1	simplified	impersonal	d	Yes	7.78239033558746	N/A	-1	0.556885246	0.046017066	0.886229508	-1	0	FALSE	-0.113770492	0	0.85	-5.36503520605081e-05	7.78244398593952
0.85	a nun	an astronaut	28	UKtrst	1	65	1	simplified	impersonal	d	Yes	7.26192709270275	N/A	-1	0.415456693	0.043674601	0.830913386	-1	0	FALSE	-0.169086614	0	0.85	-0.588630471420962	7.85055756412371
0.85	a billionaire	a mentor	28	UKtrst	1	120	1	simplified	impersonal	k	No	7.54486106865846	N/A	-1	0.4162	0.045769154	0.8324	-1	1	FALSE	-0.1676	1	0.85	-0.222527003253733	7.76738807191219
0.85	a billionaire	a police officer	28	UKtrst	1	33	1	simplified	impersonal	k	No	7.8995244720322	N/A	-1	0.420041322	0.044176586	0.840082645	-1	1	FALSE	-0.159917355	1	0.85	0.000168199222438048	7.89935627280976
0.85	a celebrity	a judge	28	UKtrst	1	95	1	simplified	impersonal	k	No	7.61035761831284	N/A	-1	0.419758929	0.047716839	0.839517857	-1	1	FALSE	-0.160482143	1	0.85	-0.194724975639359	7.8050825939522
0.85	a mentor	a billionaire	28	UKtrst	1	13	1	simplified	impersonal	d	Yes	7.09920174355309	N/A	-1	0.4162	0.045769154	0.8324	1	1	TRUE	0.1676	1	0.85	-0.830807637802656	7.93000938135575
0.85	a billionaire	an adult	28	UKtrst	1	70	1	simplified	impersonal	k	No	7.56268124672188	N/A	-1	0.422738739	0.047277786	0.845477477	-1	1	FALSE	-0.154522523	1	0.85	-0.280278797814464	7.84296004453635
0.85	a judge	a celebrity	28	UKtrst	1	36	1	simplified	impersonal	d	Yes	8.08641027532378	N/A	-1	0.419758929	0.047716839	0.839517857	1	1	TRUE	0.160482143	1	0.85	0.191641737970246	7.89476853735354
0.85	an addict	a member of parliament	28	UKtrst	1	64	1	simplified	impersonal	k	No	7.82444593087762	N/A	-1	0.569805556	0.046965722	0.860388889	-1	1	FALSE	-0.139611111	1	0.85	-0.0276320201067284	7.85207795098435
0.85	a mentor	an elderly person	28	UKtrst	1	87	1	simplified	impersonal	k	No	7.98309894071089	N/A	-1	0.410546218	0.045557819	0.821092437	-1	1	FALSE	-0.178907563	1	0.85	0.16591550760876	7.81718343310213
0.85	a mentor	a nun	28	UKtrst	1	82	1	simplified	impersonal	k	No	7.54644627374602	N/A	-1	0.570336	0.044015275	0.859328	1	0	TRUE	0.140672	0	0.85	-0.278309708994736	7.82475598274076
0.85	an olympian	a celebrity	28	UKtrst	1	4	1	simplified	impersonal	d	Yes	7.94307271727793	N/A	-1	0.420575472	0.046129421	0.841150943	1	1	TRUE	0.158849057	1	0.85	-0.00076934216002833	7.94384205943796
0.95	a soldier	an orphan	28	UKtrst	1	35	1	simplified	impersonal	k	No	8.0040315078527	N/A	-1	0.51975	0.045540706	0.9605	1	0	TRUE	0.0395	0	0.95	0.107734021471798	7.8962974863809
0.95	a billionaire	a homeless adult	28	UKtrst	1	38	1	simplified	impersonal	k	No	8.20631072579402	N/A	-1	0.494091667	0.045396398	0.988183333	-1	1	FALSE	-0.0118166669999999	1	0.95	0.314599198407759	7.89171152738626
0.95	a university student	a mentor	28	UKtrst	1	90	1	simplified	impersonal	d	Yes	8.09894674894334	N/A	-1	0.479666667	0.045695603	0.959333333	-1	0	FALSE	-0.040666667	0	0.95	0.286303327503585	7.81264342143975
0.95	a billionaire	a nun	28	UKtrst	1	85	1	simplified	impersonal	k	No	7.61134771740362	N/A	-1	0.501443478	0.046949754	0.997113043	1	0	TRUE	0.00288695699999997	0	0.95	-0.20886385573988	7.8202115731435
0.95	an orphan	a soldier	28	UKtrst	1	115	1	simplified	impersonal	d	Yes	7.40853056689463	N/A	-1	0.51975	0.045540706	0.9605	-1	0	FALSE	-0.0395	0	0.95	-0.366381817609227	7.77491238450385
0.95	an olympian	a nun	28	UKtrst	1	54	1	simplified	impersonal	k	No	8.11132800328673	N/A	-1	0.451598291	0.047128701	0.903196581	1	0	TRUE	0.096803419	0	0.95	0.24402997967676	7.86729802360997
0.95	an olympian	a homeless adult	28	UKtrst	1	88	1	simplified	impersonal	d	Yes	8.70764824810691	N/A	-1	0.455826446	0.044698618	0.911652893	1	1	TRUE	0.088347107	1	0.95	0.89197844528877	7.81566980281814
0.95	an astronaut	a billionaire	28	UKtrst	1	10	1	simplified	impersonal	d	Yes	7.58882987830781	N/A	-1	0.456103448	0.045978254	0.912206897	1	1	TRUE	0.087793103	1	0.95	-0.345787717340083	7.9346175956479
0.95	a mentor	an adult	28	UKtrst	1	80	1	simplified	impersonal	k	No	8.55852705490921	N/A	-1	0.480545455	0.046604891	0.961090909	-1	1	FALSE	-0.038909091	1	0.95	0.730739998750766	7.82778705615845
0.95	a convict	a thief	28	UKtrst	1	69	1	simplified	impersonal	k	No	8.4013333053217	N/A	-1	0.532835938	0.045321554	0.934328125	1	0	TRUE	0.065671875	0	0.95	0.556854345306703	7.844478960015
0.95	a nun	a billionaire	28	UKtrst	1	96	1	simplified	impersonal	d	Yes	7.45876269238096	N/A	-1	0.501443478	0.046949754	0.997113043	-1	0	FALSE	-0.00288695699999997	0	0.95	-0.34480861435579	7.80357130673675
0.95	an astronaut	a mentor	28	UKtrst	1	26	1	simplified	impersonal	d	Yes	8.19726337141434	N/A	-1	0.527666667	0.046550313	0.944666667	-1	0	FALSE	-0.055333333	0	0.95	0.287192012151606	7.91007135926273
0.95	an adult	an astronaut	28	UKtrst	1	73	1	simplified	impersonal	d	Yes	8.22657347497711	N/A	-1	0.511754098	0.044343361	0.976491803	1	1	TRUE	0.023508197	1	0.95	0.388168412471631	7.83840506250548
0.95	a police officer	a mentor	28	UKtrst	1	29	1	simplified	impersonal	k	No	8.9128772876693	N/A	-1	0.471458015	0.043343804	0.942916031	1	0	TRUE	0.057083969	0	0.95	1.00739988689924	7.90547740077005
0.95	an assassin	a thief	28	UKtrst	1	84	1	simplified	impersonal	k	No	8.02486215028641	N/A	-1	0.494268293	0.043528702	0.988536585	1	0	TRUE	0.011463415	0	0.95	0.203136067271978	7.82172608301443
0.05	a mentor	a rapist	31	UKtrst	1	40	1	simplified	impersonal	k	Yes	7.87283617502572	N/A	-1	0.95027907	0.019544972	0.09944186	1	1	TRUE	0.90055814	1	0.05	-0.244012211817879	8.1168483868436
0.05	a rapist	an astronaut	31	UKtrst	1	105	1	simplified	impersonal	d	No	7.63482067774554	N/A	-1	0.047638462	0.018454336	0.095276923	-1	1	FALSE	-0.904723077	1	0.05	-0.287558729537677	7.92237940728322
0.05	a mentor	a terrorist	31	UKtrst	1	72	1	simplified	impersonal	k	Yes	7.34858753092759	N/A	-1	0.952975207	0.01892028	0.094049587	1	1	TRUE	0.905950413	1	0.05	-0.671932898659295	8.02052042958689
0.05	an adult	a pedophile	31	UKtrst	1	3	1	simplified	impersonal	k	Yes	8.25842246245888	N/A	-1	0.034344262	0.015825463	0.068688525	1	1	TRUE	0.931311475	1	0.05	0.0287517834022086	8.22967067905667
0.05	an astronaut	a pedophile	31	UKtrst	1	114	1	simplified	impersonal	k	Yes	7.74066440191724	N/A	-1	0.0383125	0.016794886	0.076625	1	1	TRUE	0.923375	1	0.05	-0.155158310245593	7.89582271216283
0.05	an elderly person	a pedophile	31	UKtrst	1	27	1	simplified	impersonal	k	Yes	8.29029259122431	N/A	-1	0.032842975	0.01664706	0.06568595	1	1	TRUE	0.93431405	1	0.05	0.133981286559312	8.156311304665
0.05	an astronaut	a rapist	31	UKtrst	1	63	1	simplified	impersonal	k	Yes	7.46965417293213	N/A	-1	0.047638462	0.018454336	0.095276923	1	1	TRUE	0.904723077	1	0.05	-0.577842358261914	8.04749653119404
0.05	a terrorist	an astronaut	31	UKtrst	1	108	1	simplified	impersonal	d	No	7.60140233458373	N/A	-1	0.045731707	0.017917991	0.091463415	-1	1	FALSE	-0.908536585	1	0.05	-0.312114931310084	7.91351726589382
0.05	a terrorist	an elderly person	31	UKtrst	1	101	1	simplified	impersonal	d	No	7.7007477945118	N/A	-1	0.036258621	0.017717117	0.072517241	-1	1	FALSE	-0.927482759	1	0.05	-0.233463241292446	7.93421103580424
0.05	a pedophile	a mentor	31	UKtrst	1	55	1	simplified	impersonal	d	No	7.63240112660145	N/A	-1	0.961666667	0.017395087	0.076666667	-1	1	FALSE	-0.923333333	1	0.05	-0.439150321354657	8.07155144795611
0.15	a terrorist	a judge	31	UKtrst	1	75	1	simplified	impersonal	d	No	7.78655180642871	N/A	-1	0.92894958	0.023553156	0.14210084	-1	1	FALSE	-0.85789916	1	0.15	-0.224996699142743	8.01154850557145
0.15	an assassin	an astronaut	31	UKtrst	1	109	1	simplified	impersonal	d	No	7.49776170062257	N/A	-1	0.089882813	0.025109994	0.179765625	-1	1	FALSE	-0.820234375	1	0.15	-0.412803721662446	7.91056542228502
0.15	an assassin	a university student	31	UKtrst	1	102	1	simplified	impersonal	d	No	7.70481192293259	N/A	-1	0.902647541	0.026180889	0.194704918	-1	1	FALSE	-0.805295082	1	0.15	-0.226439550220809	7.9312514731534
0.15	a judge	a terrorist	31	UKtrst	1	110	1	simplified	impersonal	k	Yes	7.71199650704767	N/A	-1	0.92894958	0.023553156	0.14210084	1	1	TRUE	0.85789916	1	0.15	-0.195618172704132	7.9076146797518
0.15	an orphan	an assassin	31	UKtrst	1	8	1	simplified	impersonal	k	Yes	8.51258257885855	N/A	-1	0.061959677	0.021973305	0.123919355	1	1	TRUE	0.876080645	1	0.15	0.298249317893461	8.21433326096509
0.15	a soldier	an assassin	31	UKtrst	1	70	1	simplified	impersonal	k	Yes	7.78239033558746	N/A	-1	0.925896	0.023059074	0.148208	1	1	TRUE	0.851792	1	0.15	-0.244116957884017	8.02650729347148
0.25	an elderly person	a hooligan	31	UKtrst	1	98	1	simplified	impersonal	k	Yes	7.99699040583765	N/A	-1	0.111577586	0.02813358	0.223155172	1	1	TRUE	0.776844828	1	0.25	0.0538940542313284	7.94309635160632
0.25	an assassin	a nun	31	UKtrst	1	19	1	simplified	impersonal	d	No	7.78030308790837	N/A	-1	0.856574803	0.028804434	0.286850394	-1	1	FALSE	-0.713149606	1	0.25	-0.400388393717095	8.18069148162547
0.25	a police officer	a thief	31	UKtrst	1	46	1	simplified	impersonal	k	Yes	7.88683299895506	N/A	-1	0.854661417	0.031063765	0.290677165	1	1	TRUE	0.709322835	1	0.25	-0.211866187592206	8.09869918654726
0.25	a thief	a mentor	31	UKtrst	1	112	1	simplified	impersonal	d	No	7.78904040165748	N/A	-1	0.874157025	0.02898668	0.25168595	-1	1	FALSE	-0.74831405	1	0.25	-0.112676094611957	7.90171649626943
0.25	an orphan	a convict	31	UKtrst	1	107	1	simplified	impersonal	k	Yes	7.92153563213355	N/A	-1	0.131296875	0.028813159	0.26259375	1	1	TRUE	0.73740625	1	0.25	0.00506542114446962	7.91647021098908
0.25	an addict	a pedophile	31	UKtrst	1	26	1	simplified	impersonal	k	Yes	8.37054761107475	N/A	-1	0.118520661	0.030406322	0.237041322	1	1	TRUE	0.762958678	1	0.25	0.211192762224112	8.15935484885064
0.25	a thief	a police officer	31	UKtrst	1	103	1	simplified	impersonal	d	No	7.5076900778199	N/A	-1	0.854661417	0.031063765	0.290677165	-1	1	FALSE	-0.709322835	1	0.25	-0.420602936637548	7.92829301445745
0.25	a hooligan	a university student	31	UKtrst	1	42	1	simplified	impersonal	d	No	7.54960916515453	N/A	-1	0.858273504	0.031504583	0.283452991	-1	1	FALSE	-0.716547009	1	0.25	-0.561184973597452	8.11079413875198
0.25	a hooligan	a mentor	31	UKtrst	1	41	1	simplified	impersonal	d	No	7.59538727885397	N/A	-1	0.121487603	0.02848289	0.242975207	-1	1	FALSE	-0.757024793	1	0.25	-0.518433419260425	8.1138206981144
0.25	a thief	an olympian	31	UKtrst	1	66	1	simplified	impersonal	d	No	7.74066440191724	N/A	-1	0.130849558	0.031560707	0.261699115	-1	1	FALSE	-0.738300885	1	0.25	-0.297830029222792	8.03849443114003
0.25	a rapist	a billionaire	31	UKtrst	1	52	1	simplified	impersonal	d	No	7.78322401633604	N/A	-1	0.891907563	0.028635424	0.216184874	-1	1	FALSE	-0.783815126	1	0.25	-0.297366551364199	8.08059056770024
0.25	a convict	an elderly person	31	UKtrst	1	99	1	simplified	impersonal	d	No	8.02747653086048	N/A	-1	0.139190476	0.031039612	0.278380952	-1	1	FALSE	-0.721619048	1	0.25	0.0873430562419513	7.94013347461853
0.25	a police officer	an assassin	31	UKtrst	1	24	1	simplified	impersonal	k	Yes	7.76089319585102	N/A	-1	0.883398496	0.027343169	0.233203008	1	1	TRUE	0.766796992	1	0.25	-0.404552148908824	8.16544534475985
0.25	an elderly person	a convict	31	UKtrst	1	100	1	simplified	impersonal	k	Yes	7.82003798945875	N/A	-1	0.139190476	0.031039612	0.278380952	1	1	TRUE	0.721619048	1	0.25	-0.117133713363169	7.93717170282192
0.25	a mentor	a thief	31	UKtrst	1	33	1	simplified	impersonal	k	Yes	7.64108424917491	N/A	-1	0.874157025	0.02898668	0.25168595	1	1	TRUE	0.74831405	1	0.25	-0.496989616462941	8.13807386563786
0.25	a rapist	a member of parliament	31	UKtrst	1	31	1	simplified	impersonal	d	No	8.06274790108635	N/A	-1	0.855307692	0.031337817	0.289384615	-1	1	FALSE	-0.710615385	1	0.25	-0.0814005754129816	8.14414847649934
0.25	a celebrity	a pedophile	31	UKtrst	1	39	1	simplified	impersonal	k	Yes	7.76684053708551	N/A	-1	0.891396552	0.028483929	0.217206897	1	1	TRUE	0.782793103	1	0.25	-0.353036668275517	8.11987720536103
0.25	a terrorist	a celebrity	31	UKtrst	1	78	1	simplified	impersonal	d	No	7.85709386490249	N/A	-1	0.869756757	0.03200262	0.260486486	-1	1	FALSE	-0.739513514	1	0.25	-0.145492752837742	8.00258661774023
0.25	an adult	a hooligan	31	UKtrst	1	4	1	simplified	impersonal	k	Yes	8.03333401588006	N/A	-1	0.127264957	0.030107204	0.254529915	1	1	TRUE	0.745470085	1	0.25	-0.193266890282924	8.22660090616299
0.25	an adult	an assassin	31	UKtrst	1	36	1	simplified	impersonal	k	Yes	7.5137092478397	N/A	-1	0.891219512	0.028783398	0.217560976	1	1	TRUE	0.782439024	1	0.25	-0.615261196019539	8.12897044385924
0.25	a thief	a university student	31	UKtrst	1	95	1	simplified	impersonal	d	No	7.82484569102686	N/A	-1	0.87442735	0.03118012	0.251145299	-1	1	FALSE	-0.748854701	1	0.25	-0.127145926814742	7.9519916178416
0.25	a soldier	a convict	31	UKtrst	1	48	1	simplified	impersonal	k	Yes	7.71289096149013	N/A	-1	0.124821705	0.029687253	0.249643411	1	1	TRUE	0.750356589	1	0.25	-0.379767514210023	8.09265847570015
0.35	a homeless adult	a thief	31	UKtrst	1	65	1	simplified	impersonal	k	Yes	8.19643681123503	N/A	-1	0.812293651	0.034013809	0.375412698	1	1	TRUE	0.624587302	1	0.35	0.154942799515819	8.04149401171921
0.35	a hooligan	a homeless adult	31	UKtrst	1	13	1	simplified	impersonal	d	No	8.40626163070896	N/A	-1	0.160920635	0.031831146	0.32184127	-1	1	FALSE	-0.67815873	1	0.35	0.207237203897771	8.19902442681119
0.35	a thief	a nun	31	UKtrst	1	12	1	simplified	impersonal	d	No	8.39117635083275	N/A	-1	0.824336066	0.034879285	0.351327869	-1	1	FALSE	-0.648672131	1	0.35	0.189092441347352	8.2020839094854
0.35	an addict	an orphan	31	UKtrst	1	104	1	simplified	impersonal	d	No	7.80180040190897	N/A	-1	0.167077586	0.034000282	0.334155172	-1	1	FALSE	-0.665844828	1	0.35	-0.12353525739563	7.9253356593046
0.35	a billionaire	a thief	31	UKtrst	1	60	1	simplified	impersonal	k	Yes	7.63240112660145	N/A	-1	0.801189189	0.038793088	0.397621622	1	1	TRUE	0.602378378	1	0.35	-0.424107585863429	8.05650871246488
0.35	an astronaut	a convict	31	UKtrst	1	64	1	simplified	impersonal	k	Yes	7.58781721999343	N/A	-1	0.175218045	0.033929648	0.35043609	1	1	TRUE	0.64956391	1	0.35	-0.456677491604561	8.04449471159799
0.45	a convict	a nun	31	UKtrst	1	79	1	simplified	impersonal	d	No	7.8458075026378	N/A	-1	0.206212121	0.033959083	0.412424242	-1	1	FALSE	-0.587575758	1	0.45	-0.153794047481074	7.99960155011888
0.45	a thief	a pedophile	31	UKtrst	1	91	1	simplified	impersonal	k	Yes	7.88683299895506	N/A	-1	0.206731707	0.036883516	0.413463415	1	1	TRUE	0.586536585	1	0.45	-0.0770344715802551	7.96386747053531
0.45	a celebrity	a thief	31	UKtrst	1	15	1	simplified	impersonal	k	Yes	7.8739783796045	N/A	-1	0.765432432	0.041375509	0.469135135	1	1	TRUE	0.530864865	1	0.45	-0.3189305051116	8.1929088847161
0.45	a rapist	a thief	31	UKtrst	1	35	1	simplified	impersonal	d	No	8.41005331585833	N/A	-1	0.230256	0.037654965	0.460512	-1	1	FALSE	-0.539488	1	0.45	0.278049530111385	8.13200378574695
0.45	an addict	an adult	31	UKtrst	1	84	1	simplified	impersonal	d	No	7.87587915949631	N/A	-1	0.218608696	0.038564083	0.437217391	-1	1	FALSE	-0.562782609	1	0.45	-0.108813746239942	7.98469290573625
0.45	an assassin	a pedophile	31	UKtrst	1	120	1	simplified	impersonal	d	No	8.6447065117152	N/A	-1	0.241914063	0.037189827	0.483828125	1	0	TRUE	0.516171875	0	0.45	0.766538788419682	7.87816772329552
0.55	a pedophile	a convict	31	UKtrst	1	37	1	simplified	impersonal	d	No	8.01862546504575	N/A	-1	0.702255639	0.041505171	0.595488722	-1	1	FALSE	-0.404511278	1	0.55	-0.107312768401282	8.12593823344703
0.55	a member of parliament	an elderly person	31	UKtrst	1	87	1	simplified	impersonal	k	Yes	8.26436332973167	N/A	-1	0.266703704	0.041137924	0.533407407	-1	0	FALSE	-0.466592593	0	0.55	0.288602270583896	7.97576105914777
0.55	a rapist	an assassin	31	UKtrst	1	2	1	simplified	impersonal	d	No	8.46695197497949	N/A	-1	0.268763359	0.038158567	0.537526718	-1	1	FALSE	-0.462473282	1	0.55	0.234210377537128	8.23274159744236
0.55	a terrorist	a thief	31	UKtrst	1	56	1	simplified	impersonal	d	No	8.01234963932779	N/A	-1	0.267127119	0.0412262	0.534254237	-1	1	FALSE	-0.465745763	1	0.55	-0.0561910162392643	8.06854065556706
0.55	a celebrity	a hooligan	31	UKtrst	1	10	1	simplified	impersonal	k	Yes	7.94200680848986	N/A	-1	0.744261261	0.039856902	0.511477477	1	1	TRUE	0.488522523	1	0.55	-0.266199491726563	8.20820630021642
0.55	a soldier	a judge	31	UKtrst	1	82	1	simplified	impersonal	d	No	7.95050243480885	N/A	-1	0.293983333	0.042965829	0.587966667	1	0	TRUE	0.412033333	0	0.55	-0.0401505915961966	7.99065302640505
0.55	a celebrity	a soldier	31	UKtrst	1	58	1	simplified	impersonal	d	No	8.1934002319521	N/A	-1	0.270929204	0.040423826	0.541858407	-1	1	FALSE	-0.458141593	1	0.55	0.130877792389331	8.06252243956277
0.55	a billionaire	a convict	31	UKtrst	1	22	1	simplified	impersonal	k	Yes	8.23536064375335	N/A	-1	0.735190083	0.041215653	0.529619835	1	1	TRUE	0.470380165	1	0.55	0.0638202568743136	8.17154038687903
0.55	a hooligan	a member of parliament	31	UKtrst	1	111	1	simplified	impersonal	d	No	7.94767857130157	N/A	-1	0.707463636	0.044322941	0.585072727	-1	1	FALSE	-0.414927273	1	0.55	0.0430135334181063	7.90466503788346
0.65	a soldier	an olympian	31	UKtrst	1	20	1	simplified	impersonal	d	No	8.2995345703326	N/A	-1	0.664324561	0.045101837	0.671350877	1	0	TRUE	0.328649123	0	0.65	0.121894591730911	8.17763997860169
0.65	a judge	an elderly person	31	UKtrst	1	21	1	simplified	impersonal	k	Yes	8.03268487596762	N/A	-1	0.333735043	0.044677328	0.667470085	-1	0	FALSE	-0.332529915	0	0.65	-0.141904737860115	8.17458961382773
0.65	a nun	an addict	31	UKtrst	1	97	1	simplified	impersonal	k	Yes	7.85554467791566	N/A	-1	0.66615	0.044809062	0.6677	1	1	TRUE	0.3323	1	0.65	-0.0905156562820357	7.9460603341977
0.65	a terrorist	a pedophile	31	UKtrst	1	45	1	simplified	impersonal	d	No	8.2845042272585	N/A	-1	0.304528455	0.040227584	0.609056911	1	0	TRUE	0.390943089	0	0.65	0.182782994604883	8.10172123265361
0.65	an elderly person	a homeless adult	31	UKtrst	1	9	1	simplified	impersonal	d	No	8.80222174640246	N/A	-1	0.317927419	0.04210367	0.635854839	1	0	TRUE	0.364145161	0	0.65	0.590952537277051	8.2112692091254
0.65	a member of parliament	a police officer	31	UKtrst	1	92	1	simplified	impersonal	k	Yes	8.47803647621504	N/A	-1	0.317361345	0.043302838	0.634722689	-1	0	FALSE	-0.365277311	0	0.65	0.51713963056174	7.9608968456533
0.65	an addict	a judge	31	UKtrst	1	17	1	simplified	impersonal	d	No	7.84306401669205	N/A	-1	0.670290598	0.04306506	0.659418803	-1	1	FALSE	-0.340581197	1	0.65	-0.343733887429595	8.18679790412165
0.65	a rapist	a convict	31	UKtrst	1	80	1	simplified	impersonal	d	No	7.74759683869289	N/A	-1	0.683222222	0.04051228	0.633555556	-1	1	FALSE	-0.366444444	1	0.65	-0.249020757273207	7.99661759596609
0.65	an elderly person	a nun	31	UKtrst	1	94	1	simplified	impersonal	d	No	7.99159228206809	N/A	-1	0.321791667	0.043644878	0.643583333	1	0	TRUE	0.356416667	0	0.65	0.0366333623483932	7.9549589197197
0.65	an addict	a hooligan	31	UKtrst	1	32	1	simplified	impersonal	k	Yes	8.76092337633884	N/A	-1	0.316758621	0.043130591	0.633517241	1	1	TRUE	0.366482759	1	0.65	0.619812771852885	8.14111060448595
0.75	a mentor	a soldier	31	UKtrst	1	53	1	simplified	impersonal	k	Yes	8.07930819205196	N/A	-1	0.367056911	0.043529554	0.734113821	-1	0	FALSE	-0.265886179	0	0.75	0.00173178844856992	8.07757640360339
0.75	an adult	an elderly person	31	UKtrst	1	54	1	simplified	impersonal	k	Yes	7.58578882173203	N/A	-1	0.3986	0.044520798	0.7972	-1	0	FALSE	-0.2028	0	0.75	-0.488774542096444	8.07456336382848
0.75	an adult	a celebrity	31	UKtrst	1	76	1	simplified	impersonal	k	Yes	8.0925452638913	N/A	-1	0.361099099	0.045063326	0.722198198	1	1	TRUE	0.277801802	1	0.75	0.0839851688405009	8.0085600950508
0.75	a member of parliament	a university student	31	UKtrst	1	44	1	simplified	impersonal	d	No	8.28020423327997	N/A	-1	0.647366972	0.045710595	0.705266055	-1	1	FALSE	-0.294733945	1	0.75	0.175459826837351	8.10474440644262
0.75	an adult	a judge	31	UKtrst	1	71	1	simplified	impersonal	d	No	7.89319886954461	N/A	-1	0.391525424	0.042230977	0.783050847	1	0	TRUE	0.216949153	0	0.75	-0.130314433586143	8.02351330313075
0.75	a mentor	a celebrity	31	UKtrst	1	7	1	simplified	impersonal	k	Yes	8.19257047115217	N/A	-1	0.35273913	0.043045041	0.705478261	1	1	TRUE	0.294521739	1	0.75	-0.0248279850097965	8.21739845616197
0.75	a university student	a soldier	31	UKtrst	1	118	1	simplified	impersonal	k	Yes	8.56731580081945	N/A	-1	0.371211864	0.044719783	0.742423729	-1	0	FALSE	-0.257576271	0	0.75	0.683267471865809	7.88404832895364
0.75	a judge	a mentor	31	UKtrst	1	57	1	simplified	impersonal	d	No	8.38434727808281	N/A	-1	0.384237705	0.043774169	0.76847541	-1	1	FALSE	-0.23152459	1	0.75	0.318816291840559	8.06553098624225
0.75	an elderly person	an astronaut	31	UKtrst	1	34	1	simplified	impersonal	d	No	7.68017564043659	N/A	-1	0.364818182	0.044435966	0.729636364	1	0	TRUE	0.270363636	0	0.75	-0.454862619095773	8.13503825953236
0.75	a judge	a police officer	31	UKtrst	1	49	1	simplified	impersonal	k	Yes	8.60831278478372	N/A	-1	0.386015625	0.043028534	0.77203125	-1	0	FALSE	-0.22796875	0	0.75	0.518672974665142	8.08963981011858
0.75	a nun	an adult	31	UKtrst	1	28	1	simplified	impersonal	d	No	8.02387999273488	N/A	-1	0.387950413	0.042364472	0.775900826	-1	1	FALSE	-0.224099174	1	0.75	-0.129388903025571	8.15326889576045
0.75	an astronaut	an elderly person	31	UKtrst	1	90	1	simplified	impersonal	k	Yes	7.64969262371151	N/A	-1	0.364818182	0.044435966	0.729636364	-1	0	FALSE	-0.270363636	0	0.75	-0.317146580200533	7.96683920391205
0.75	an astronaut	a soldier	31	UKtrst	1	69	1	simplified	impersonal	k	Yes	7.9665866976384	N/A	-1	0.641306452	0.043707065	0.717387097	-1	0	FALSE	-0.282612903	0	0.75	-0.0629157033873975	8.0295024010258
0.75	a university student	a member of parliament	31	UKtrst	1	38	1	simplified	impersonal	k	Yes	8.59877317840866	N/A	-1	0.647366972	0.045710595	0.705266055	1	1	TRUE	0.294733945	1	0.75	0.4758660243204	8.12290715408826
0.75	an orphan	an astronaut	31	UKtrst	1	115	1	simplified	impersonal	k	Yes	8.52357279838028	N/A	-1	0.354886179	0.043317075	0.709772358	1	1	TRUE	0.290227642	1	0.75	0.630695329530376	7.8928774688499
0.75	a police officer	a homeless adult	31	UKtrst	1	50	1	simplified	impersonal	k	Yes	8.17835816560584	N/A	-1	0.370433824	0.042321582	0.740867647	1	1	TRUE	0.259132353	1	0.75	0.0917358950677816	8.08662227053805
0.75	a police officer	a soldier	31	UKtrst	1	61	1	simplified	impersonal	k	Yes	8.30251371851416	N/A	-1	0.376635659	0.041195439	0.753271318	-1	0	FALSE	-0.246728682	0	0.75	0.249010187304727	8.05350353120943
0.75	a celebrity	a mentor	31	UKtrst	1	68	1	simplified	impersonal	d	No	7.53689712956617	N/A	-1	0.35273913	0.043045041	0.705478261	-1	1	FALSE	-0.294521739	1	0.75	-0.495601496644441	8.03249862621061
0.85	a university student	a judge	31	UKtrst	1	113	1	simplified	impersonal	k	Yes	8.01367414283268	N/A	-1	0.559423729	0.046173254	0.881152542	1	1	TRUE	0.118847458	1	0.85	0.114905088333374	7.89876905449931
0.85	a police officer	an olympian	31	UKtrst	1	47	1	simplified	impersonal	d	No	8.51418868239594	N/A	-1	0.556885246	0.046017066	0.886229508	1	0	TRUE	0.113770492	0	0.85	0.418510414692999	8.09567826770294
0.85	a homeless adult	a celebrity	31	UKtrst	1	85	1	simplified	impersonal	d	No	8.23429963569625	N/A	-1	0.436633333	0.045219088	0.873266667	1	0	TRUE	0.126733333	0	0.85	0.252585122996893	7.98171451269936
0.85	a billionaire	a university student	31	UKtrst	1	81	1	simplified	impersonal	d	No	8.02355239240435	N/A	-1	0.410381818	0.047623939	0.820763636	-1	1	FALSE	-0.179236364	1	0.85	0.0299176375378032	7.99363475486654
0.85	a convict	an assassin	31	UKtrst	1	1	1	simplified	impersonal	k	Yes	8.14002395246292	N/A	-1	0.578556391	0.042368304	0.842887218	1	1	TRUE	0.157112782	1	0.85	-0.0957897092845901	8.23581366174751
0.85	an astronaut	a nun	31	UKtrst	1	5	1	simplified	impersonal	k	Yes	8.48260174664662	N/A	-1	0.415456693	0.043674601	0.830913386	1	1	TRUE	0.169086614	1	0.85	0.259069468312589	8.22353227833403
0.85	a mentor	an elderly person	31	UKtrst	1	23	1	simplified	impersonal	k	Yes	7.77359446736019	N/A	-1	0.410546218	0.045557819	0.821092437	-1	0	FALSE	-0.178907563	0	0.85	-0.394897829970965	8.16849229733116
0.85	a billionaire	an adult	31	UKtrst	1	77	1	simplified	impersonal	d	No	8.46947245520483	N/A	-1	0.422738739	0.047277786	0.845477477	-1	1	FALSE	-0.154522523	1	0.85	0.463899655959167	8.00557279924566
0.85	a celebrity	a judge	31	UKtrst	1	43	1	simplified	impersonal	d	No	7.96623977655947	N/A	-1	0.419758929	0.047716839	0.839517857	-1	1	FALSE	-0.160482143	1	0.85	-0.14152893177563	8.1077687083351
0.85	an elderly person	a university student	31	UKtrst	1	89	1	simplified	impersonal	d	No	8.05229649953865	N/A	-1	0.413721739	0.044873733	0.827443478	1	0	TRUE	0.172556522	0	0.85	0.0824844533414977	7.96981204619715
0.85	a homeless adult	an astronaut	31	UKtrst	1	16	1	simplified	impersonal	d	No	8.3250636936312	N/A	-1	0.419412214	0.043392138	0.838824427	-1	1	FALSE	-0.161175573	1	0.85	0.135210869187194	8.189852824444
0.85	an astronaut	a judge	31	UKtrst	1	117	1	simplified	impersonal	d	No	8.26436332973167	N/A	-1	0.430330645	0.044709298	0.86066129	1	0	TRUE	0.13933871	0	0.85	0.377373052076642	7.88699027765503
0.85	a billionaire	a mentor	31	UKtrst	1	83	1	simplified	impersonal	d	No	7.97693875695943	N/A	-1	0.4162	0.045769154	0.8324	-1	1	FALSE	-0.1676	1	0.85	-0.01073365320714	7.98767241016657
0.95	a billionaire	a celebrity	31	UKtrst	1	51	1	simplified	impersonal	k	Yes	8.83448260862068	N/A	-1	0.536	0.049439992	0.928	1	1	TRUE	0.072	1	0.95	0.750876752082119	8.08360585653856
0.95	a billionaire	a homeless adult	31	UKtrst	1	93	1	simplified	impersonal	k	Yes	7.57147364885127	N/A	-1	0.494091667	0.045396398	0.988183333	-1	0	FALSE	-0.0118166669999999	0	0.95	-0.386453680001273	7.95792732885254
0.95	a billionaire	an astronaut	31	UKtrst	1	96	1	simplified	impersonal	d	No	7.66434663209862	N/A	-1	0.456103448	0.045978254	0.912206897	-1	1	FALSE	-0.087793103	1	0.95	-0.284678790706603	7.94902542280522
0.95	a university student	an astronaut	31	UKtrst	1	6	1	simplified	impersonal	d	No	8.7702838190984	N/A	-1	0.533778689	0.043323604	0.932442623	1	0	TRUE	0.067557377	0	0.95	0.549819023955719	8.22046479514268
0.95	an olympian	a nun	31	UKtrst	1	14	1	simplified	impersonal	k	Yes	8.4277060249147	N/A	-1	0.451598291	0.047128701	0.903196581	1	1	TRUE	0.096803419	1	0.95	0.231739939551385	8.19596608536332
0.95	an olympian	a judge	31	UKtrst	1	67	1	simplified	impersonal	d	No	8.3020178097512	N/A	-1	0.462929825	0.047858648	0.925859649	1	0	TRUE	0.074140351	0	0.95	0.266521840308249	8.03549596944296
0.95	an olympian	a homeless adult	31	UKtrst	1	25	1	simplified	impersonal	k	Yes	8.27842825919907	N/A	-1	0.455826446	0.044698618	0.911652893	1	1	TRUE	0.088347107	1	0.95	0.11602873045808	8.16239952874099
0.95	a soldier	an orphan	31	UKtrst	1	30	1	simplified	impersonal	d	No	8.70317470904168	N/A	-1	0.51975	0.045540706	0.9605	1	0	TRUE	0.0395	0	0.95	0.555987226940825	8.14718748210085
0.95	an astronaut	a billionaire	31	UKtrst	1	59	1	simplified	impersonal	k	Yes	8.28324144138542	N/A	-1	0.456103448	0.045978254	0.912206897	1	1	TRUE	0.087793103	1	0.95	0.223726426275579	8.05951501510985
0.95	a member of parliament	a celebrity	31	UKtrst	1	119	1	simplified	impersonal	k	Yes	7.71199650704767	N/A	-1	0.520631068	0.050282638	0.958737864	-1	0	FALSE	-0.0412621359999999	0	0.95	-0.169110970589246	7.88110747763691
0.95	an elderly person	an orphan	31	UKtrst	1	74	1	simplified	impersonal	d	No	7.94449216393216	N/A	-1	0.472913793	0.046173853	0.945827586	-1	1	FALSE	-0.0541724139999999	1	0.95	-0.0700458672914284	8.01453803122359
0.95	a celebrity	a billionaire	31	UKtrst	1	86	1	simplified	impersonal	k	Yes	8.72290570100077	N/A	-1	0.536	0.049439992	0.928	-1	0	FALSE	-0.072	0	0.95	0.744168470359432	7.97873723064134
0.95	an astronaut	an olympian	31	UKtrst	1	116	1	simplified	impersonal	k	Yes	8.51278348292754	N/A	-1	0.507847458	0.046818521	0.984305085	1	1	TRUE	0.015694915	1	0.95	0.622850158776972	7.88993332415057
0.95	a university student	a mentor	31	UKtrst	1	11	1	simplified	impersonal	d	No	8.85708813531495	N/A	-1	0.479666667	0.045695603	0.959333333	-1	1	FALSE	-0.040666667	1	0.95	0.651943601503147	8.20514453381181
0.95	a homeless adult	a billionaire	31	UKtrst	1	29	1	simplified	impersonal	d	No	8.19726337141434	N/A	-1	0.494091667	0.045396398	0.988183333	1	0	TRUE	0.0118166669999999	0	0.95	0.0470357497008287	8.15022762171351
0.95	a judge	a homeless adult	31	UKtrst	1	88	1	simplified	impersonal	k	Yes	8.32941678393932	N/A	-1	0.451047244	0.043778269	0.902094488	1	1	TRUE	0.097905512	1	0.95	0.35663078613491	7.97278599780441
0.95	an olympian	a billionaire	31	UKtrst	1	18	1	simplified	impersonal	d	No	8.43771698991444	N/A	-1	0.481886792	0.048698115	0.963773585	1	0	TRUE	0.036226415	0	0.95	0.253972866590617	8.18374412332382
0.95	an assassin	a hooligan	31	UKtrst	1	106	1	simplified	impersonal	k	Yes	8.43250638324904	N/A	-1	0.525504065	0.04472394	0.94899187	-1	0	FALSE	-0.05100813	0	0.95	0.513082125267221	7.91942425798182
0.95	a police officer	a mentor	31	UKtrst	1	62	1	simplified	impersonal	d	No	8.1341742721379	N/A	-1	0.471458015	0.043343804	0.942916031	1	0	TRUE	0.057083969	0	0.95	0.0836748012127071	8.0504994709252
0.05	an adult	a pedophile	27	UKtrst	1	19	1	simplified	impersonal	k	Yes	7.53262361878879	N/A	-1	0.034344262	0.015825463	0.068688525	1	1	TRUE	0.931311475	1	0.05	-0.134842365326104	7.66746598411489
0.05	a rapist	a mentor	27	UKtrst	1	119	1	simplified	impersonal	d	No	7.59689443814454	N/A	-1	0.95027907	0.019544972	0.09944186	-1	1	FALSE	-0.90055814	1	0.05	-0.0652470027027148	7.66214144084726
0.05	an elderly person	a pedophile	27	UKtrst	1	50	1	simplified	impersonal	k	Yes	7.64156444126097	N/A	-1	0.032842975	0.01664706	0.06568595	1	1	TRUE	0.93431405	1	0.05	-0.0205829645174287	7.6621474057784
0.05	a terrorist	a university student	27	UKtrst	1	46	1	simplified	impersonal	d	No	7.72577144158795	N/A	-1	0.954008547	0.019896838	0.091982906	-1	1	FALSE	-0.908017094	1	0.05	0.0636156677111961	7.66215577387676
0.05	a pedophile	a university student	27	UKtrst	1	18	1	simplified	impersonal	d	No	7.64873978895624	N/A	-1	0.961213115	0.017642591	0.07757377	-1	1	FALSE	-0.92242623	1	0.05	-0.0200309184694909	7.66877070742573
0.05	an astronaut	a rapist	27	UKtrst	1	82	1	simplified	impersonal	k	Yes	7.63191651307125	N/A	-1	0.047638462	0.018454336	0.095276923	1	1	TRUE	0.904723077	1	0.05	-0.0302249331415663	7.66214144621282
0.05	an orphan	a rapist	27	UKtrst	1	88	1	simplified	impersonal	k	Yes	7.61972421378267	N/A	-1	0.034865079	0.01587411	0.069730159	1	1	TRUE	0.930269841	1	0.05	-0.0424172285039175	7.66214144228659
0.05	a terrorist	an astronaut	27	UKtrst	1	71	1	simplified	impersonal	d	No	8.29204763743135	N/A	-1	0.045731707	0.017917991	0.091463415	-1	1	FALSE	-0.908536585	1	0.05	0.629906136777614	7.66214150065374
0.05	a terrorist	an orphan	27	UKtrst	1	48	1	simplified	impersonal	d	No	7.78904040165748	N/A	-1	0.029864407	0.016063776	0.059728814	-1	1	FALSE	-0.940271186	1	0.05	0.126889714430553	7.66215068722692
0.05	a soldier	a rapist	27	UKtrst	1	113	1	simplified	impersonal	k	Yes	7.27586460054653	N/A	-1	0.03388189	0.015766132	0.06776378	1	1	TRUE	0.93223622	1	0.05	-0.386276840305125	7.66214144085166
0.05	a pedophile	an astronaut	27	UKtrst	1	39	1	simplified	impersonal	d	No	7.39817409297047	N/A	-1	0.0383125	0.016794886	0.076625	-1	1	FALSE	-0.923375	1	0.05	-0.264033816991267	7.66220790996173
0.05	an adult	a terrorist	27	UKtrst	1	87	1	simplified	impersonal	k	Yes	7.55799495853081	N/A	-1	0.040923077	0.018282672	0.081846154	1	1	TRUE	0.918153846	1	0.05	-0.10414648410887	7.66214144263968
0.05	a pedophile	an orphan	27	UKtrst	1	24	1	simplified	impersonal	d	No	7.61775957660851	N/A	-1	0.028674797	0.014648858	0.057349593	-1	1	FALSE	-0.942650407	1	0.05	-0.0461616459755767	7.66392122258408
0.05	an adult	a rapist	27	UKtrst	1	53	1	simplified	impersonal	k	Yes	7.69848278788095	N/A	-1	0.04288	0.018679361	0.08576	1	1	TRUE	0.91424	1	0.05	0.03633825634006	7.66214453154089
0.15	a thief	an orphan	27	UKtrst	1	86	1	simplified	impersonal	d	No	7.14677217945264	N/A	-1	0.078847458	0.024532345	0.157694915	-1	1	FALSE	-0.842305085	1	0.15	-0.515369263626647	7.66214144307928
0.15	a police officer	a rapist	27	UKtrst	1	8	1	simplified	impersonal	k	Yes	7.43543801981455	N/A	-1	0.93637037	0.021034903	0.127259259	1	1	TRUE	0.872740741	1	0.15	-0.286036476267203	7.72147449608175
0.15	an astronaut	an assassin	27	UKtrst	1	85	1	simplified	impersonal	k	Yes	7.47760424319759	N/A	-1	0.089882813	0.025109994	0.179765625	1	1	TRUE	0.820234375	1	0.15	-0.184537200429025	7.66214144362661
0.15	a pedophile	a judge	27	UKtrst	1	72	1	simplified	impersonal	d	No	7.52940645783701	N/A	-1	0.948895161	0.020089609	0.102209677	-1	1	FALSE	-0.897790323	1	0.15	-0.13273503104574	7.66214148888275
0.15	a rapist	a nun	27	UKtrst	1	79	1	simplified	impersonal	d	No	7.2291138777933	N/A	-1	0.926565891	0.023136878	0.146868217	-1	1	FALSE	-0.853131783	1	0.15	-0.433027573410798	7.6621414512041
0.15	a thief	an elderly person	27	UKtrst	1	23	1	simplified	impersonal	d	No	7.97004930497614	N/A	-1	0.089508621	0.026737943	0.179017241	-1	1	FALSE	-0.820982759	1	0.15	0.305691965601387	7.66435733937475
0.15	a university student	an assassin	27	UKtrst	1	92	1	simplified	impersonal	k	Yes	7.77317368048254	N/A	-1	0.902647541	0.026180889	0.194704918	1	1	TRUE	0.805295082	1	0.15	0.111032239037218	7.66214144144532
0.15	an assassin	a mentor	27	UKtrst	1	89	1	simplified	impersonal	d	No	7.76641689801966	N/A	-1	0.900732283	0.027937936	0.198535433	-1	1	FALSE	-0.801464567	1	0.15	0.104275456016664	7.66214144200299
0.15	a rapist	a judge	27	UKtrst	1	41	1	simplified	impersonal	d	No	7.24351297466548	N/A	-1	0.929198413	0.022152029	0.141603175	-1	1	FALSE	-0.858396825	1	0.15	-0.418671346069692	7.66218432073517
0.15	an orphan	an assassin	27	UKtrst	1	22	1	simplified	impersonal	k	Yes	7.43425738213314	N/A	-1	0.061959677	0.021973305	0.123919355	1	1	TRUE	0.876080645	1	0.15	-0.23064293986363	7.66490032199677
0.15	a judge	a rapist	27	UKtrst	1	32	1	simplified	impersonal	k	Yes	7.73455884435476	N/A	-1	0.929198413	0.022152029	0.141603175	1	1	TRUE	0.858396825	1	0.15	0.0721091544472552	7.6624496899075
0.15	an olympian	an assassin	27	UKtrst	1	120	1	simplified	impersonal	k	Yes	7.60936653795421	N/A	-1	0.099533898	0.027594576	0.199067797	1	1	TRUE	0.800932203	1	0.15	-0.0527749028927298	7.66214144084694
0.15	an assassin	a university student	27	UKtrst	1	26	1	simplified	impersonal	d	No	7.35436233042148	N/A	-1	0.902647541	0.026180889	0.194704918	-1	1	FALSE	-0.805295082	1	0.15	-0.308927265369221	7.6632895957907
0.15	a nun	a rapist	27	UKtrst	1	31	1	simplified	impersonal	k	Yes	7.61085279039525	N/A	-1	0.926565891	0.023136878	0.146868217	1	1	TRUE	0.853131783	1	0.15	-0.0516724327018991	7.66252522309715
0.15	a rapist	a police officer	27	UKtrst	1	78	1	simplified	impersonal	d	No	7.42773884053289	N/A	-1	0.93637037	0.021034903	0.127259259	-1	1	FALSE	-0.872740741	1	0.15	-0.234402613209436	7.66214145374233
0.15	a terrorist	an olympian	27	UKtrst	1	28	1	simplified	impersonal	d	No	7.87321705486274	N/A	-1	0.050637168	0.019894328	0.101274336	-1	1	FALSE	-0.898725664	1	0.15	0.210334927814187	7.66288212704855
0.25	a celebrity	a terrorist	27	UKtrst	1	6	1	simplified	impersonal	k	Yes	8.04237800517328	N/A	-1	0.869756757	0.03200262	0.260486486	1	1	TRUE	0.739513514	1	0.25	0.288263012630773	7.75411499254251
0.25	an olympian	a hooligan	27	UKtrst	1	14	1	simplified	impersonal	k	Yes	7.50384074669895	N/A	-1	0.146115044	0.033726456	0.292230088	1	1	TRUE	0.707769912	1	0.25	-0.174230041219883	7.67807078791883
0.25	a member of parliament	a pedophile	27	UKtrst	1	43	1	simplified	impersonal	k	Yes	7.74759683869289	N/A	-1	0.87373913	0.030081889	0.252521739	1	1	TRUE	0.747478261	1	0.25	0.0854277356029653	7.66216910308992
0.25	an adult	a thief	27	UKtrst	1	68	1	simplified	impersonal	k	Yes	7.24494154633701	N/A	-1	0.105282051	0.02868045	0.210564103	1	1	TRUE	0.789435897	1	0.25	-0.417200009936152	7.66214155627316
0.25	an elderly person	a convict	27	UKtrst	1	29	1	simplified	impersonal	k	Yes	7.34601020991329	N/A	-1	0.139190476	0.031039612	0.278380952	1	1	TRUE	0.721619048	1	0.25	-0.316726140744573	7.66273635065787
0.25	a hooligan	an orphan	27	UKtrst	1	70	1	simplified	impersonal	d	No	8.02747653086048	N/A	-1	0.101254237	0.02776511	0.202508475	-1	1	FALSE	-0.797491525	1	0.25	0.365335015551398	7.66214151530908
0.25	a rapist	a celebrity	27	UKtrst	1	40	1	simplified	impersonal	d	No	7.64730883235624	N/A	-1	0.874705882	0.029577311	0.250588235	-1	1	FALSE	-0.749411765	1	0.25	-0.0148859956447431	7.66219482800098
0.25	a hooligan	an olympian	27	UKtrst	1	98	1	simplified	impersonal	d	No	7.14598446771439	N/A	-1	0.146115044	0.033726456	0.292230088	-1	1	FALSE	-0.707769912	1	0.25	-0.516156973292254	7.66214144100664
0.25	a thief	a police officer	27	UKtrst	1	76	1	simplified	impersonal	d	No	7.32843735289516	N/A	-1	0.854661417	0.031063765	0.290677165	-1	1	FALSE	-0.709322835	1	0.25	-0.333704107941935	7.6621414608371
0.25	a hooligan	a police officer	27	UKtrst	1	65	1	simplified	impersonal	d	No	7.48099216286952	N/A	-1	0.141937008	0.029939677	0.283874016	-1	1	FALSE	-0.716125984	1	0.25	-0.181149500747148	7.66214166361667
0.25	a nun	an assassin	27	UKtrst	1	107	1	simplified	impersonal	k	Yes	7.70751219460034	N/A	-1	0.856574803	0.028804434	0.286850394	1	1	TRUE	0.713149606	1	0.25	0.0453707537323007	7.66214144086804
0.25	an adult	an assassin	27	UKtrst	1	51	1	simplified	impersonal	k	Yes	7.78945456608667	N/A	-1	0.891219512	0.028783398	0.217560976	1	1	TRUE	0.782439024	1	0.25	0.127308334282304	7.66214623180437
0.25	a hooligan	an astronaut	27	UKtrst	1	112	1	simplified	impersonal	d	No	7.15617663748062	N/A	-1	0.132577236	0.030749614	0.265154472	-1	1	FALSE	-0.734845528	1	0.25	-0.505964803372516	7.66214144085313
0.25	a police officer	an assassin	27	UKtrst	1	12	1	simplified	impersonal	k	Yes	7.45876269238096	N/A	-1	0.883398496	0.027343169	0.233203008	1	1	TRUE	0.766796992	1	0.25	-0.228071200601241	7.6868338929822
0.25	a police officer	a hooligan	27	UKtrst	1	114	1	simplified	impersonal	k	Yes	7.34018683532012	N/A	-1	0.141937008	0.029939677	0.283874016	1	1	TRUE	0.716125984	1	0.25	-0.321954605530358	7.66214144085047
0.35	a thief	a judge	27	UKtrst	1	95	1	simplified	impersonal	d	No	7.58171964012531	N/A	-1	0.827621849	0.034056176	0.344756303	-1	1	FALSE	-0.655243697	1	0.35	-0.0804218010310533	7.66214144115636
0.35	a billionaire	an assassin	27	UKtrst	1	80	1	simplified	impersonal	k	Yes	8.25035895147729	N/A	-1	0.829521368	0.036699945	0.340957265	1	1	TRUE	0.659042735	1	0.35	0.588217502311869	7.66214144916542
0.35	a terrorist	a member of parliament	27	UKtrst	1	91	1	simplified	impersonal	d	No	7.66996199547358	N/A	-1	0.844918182	0.034703099	0.310163636	-1	1	FALSE	-0.689836364	1	0.35	0.00782055388131653	7.66214144159226
0.35	a convict	an astronaut	27	UKtrst	1	2	1	simplified	impersonal	d	No	7.56371966841437	N/A	-1	0.175218045	0.033929648	0.35043609	-1	1	FALSE	-0.64956391	1	0.35	-0.319423388346613	7.88314305676098
0.35	a convict	an adult	27	UKtrst	1	64	1	simplified	impersonal	d	No	7.44132038971762	N/A	-1	0.163779528	0.032443407	0.327559055	-1	1	FALSE	-0.672440945	1	0.35	-0.220821328486752	7.66214171820437
0.35	an olympian	a convict	27	UKtrst	1	57	1	simplified	impersonal	k	Yes	7.91169052070834	N/A	-1	0.189569106	0.036098133	0.379138211	1	1	TRUE	0.620861789	1	0.35	0.249547793617716	7.66214272709062
0.35	a university student	a convict	27	UKtrst	1	103	1	simplified	impersonal	k	Yes	7.41637847919293	N/A	-1	0.810417323	0.033934765	0.379165354	1	1	TRUE	0.620834646	1	0.35	-0.245762961706531	7.66214144089946
0.35	a police officer	a convict	27	UKtrst	1	101	1	simplified	impersonal	k	Yes	7.58528107863913	N/A	-1	0.174080292	0.031944922	0.348160584	1	1	TRUE	0.651839416	1	0.35	-0.0768603622899384	7.66214144092906
0.35	an addict	an orphan	27	UKtrst	1	25	1	simplified	impersonal	d	No	7.21964204013074	N/A	-1	0.167077586	0.034000282	0.334155172	-1	1	FALSE	-0.665844828	1	0.35	-0.443928898949991	7.66357093908073
0.35	a member of parliament	a terrorist	27	UKtrst	1	66	1	simplified	impersonal	k	Yes	7.38770923908104	N/A	-1	0.844918182	0.034703099	0.310163636	1	1	TRUE	0.689836364	1	0.35	-0.274432380691483	7.66214161977252
0.35	an addict	an elderly person	27	UKtrst	1	33	1	simplified	impersonal	d	No	8.06337782236703	N/A	-1	0.179964912	0.037184824	0.359929825	-1	1	FALSE	-0.640070175	1	0.35	0.400988799764377	7.66238902260265
0.45	a soldier	a member of parliament	27	UKtrst	1	15	1	simplified	impersonal	k	Yes	7.80547462527086	N/A	-1	0.234396396	0.040706459	0.468792793	1	1	TRUE	0.531207207	1	0.45	0.130538933852032	7.67493569141882
0.45	a convict	a nun	27	UKtrst	1	84	1	simplified	impersonal	d	No	8.20138595523861	N/A	-1	0.206212121	0.033959083	0.412424242	-1	1	FALSE	-0.587575758	1	0.45	0.539244510930547	7.66214144430806
0.45	a thief	a pedophile	27	UKtrst	1	90	1	simplified	impersonal	k	Yes	7.32646561384032	N/A	-1	0.206731707	0.036883516	0.413463415	1	1	TRUE	0.586536585	1	0.45	-0.335675827934889	7.66214144177521
0.45	a pedophile	a thief	27	UKtrst	1	42	1	simplified	impersonal	d	No	7.49776170062257	N/A	-1	0.206731707	0.036883516	0.413463415	-1	1	FALSE	-0.586536585	1	0.45	-0.164414180809288	7.66217588143186
0.45	a convict	a homeless adult	27	UKtrst	1	97	1	simplified	impersonal	k	Yes	7.68478394352278	N/A	-1	0.209544118	0.034604276	0.419088235	-1	0	FALSE	-0.580911765	0	0.45	0.0226425024766934	7.66214144104609
0.45	a hooligan	a billionaire	27	UKtrst	1	1	1	simplified	impersonal	d	No	7.9976631270201	N/A	-1	0.777558559	0.039199493	0.444882883	-1	1	FALSE	-0.555117117	1	0.45	0.0603659493444555	7.93729717767564
