overlapRound	Item1	Item2	sn	cond	sess	trial	trial_type	title	typeOfScen	keybResp	keyDef	keybRT	rtBeep	rtDeadline	averageP	sdP	overlap	direct.xVy	correct	targetPresent	dirOverlap	correct01	overlapRoundSN	res.RT	fit.RT
0.05	a pedophile	47 olympians	11	UKQuant	1	61	1	simplified	impersonal	d	No	8.93089098445088	N/A	-1	0.952	0.0187282462934456	0.0959999999999999	-1	1	FALSE	-0.904	1	0.05	0.594051343265242	8.33683964118564
0.05	a pedophile	an orphan	11	UKQuant	1	92	1	simplified	impersonal	d	No	7.92008319905323	N/A	-1	0.0280813008130081	0.0154203479030839	0.0561626016260163	-1	1	FALSE	-0.943837398373984	1	0.05	-0.243108944754244	8.16319214380748
0.05	9 rapists	6 elderly people	11	UKQuant	1	3	1	simplified	impersonal	d	No	8.48322267184508	N/A	-1	0.959737704918033	0.0178850449587835	0.0805245901639344	-1	1	FALSE	-0.919475409836066	1	0.05	-0.30470348130144	8.78792615314652
0.05	an elderly person	9 rapists	11	UKQuant	1	2	1	simplified	impersonal	k	Yes	8.80146947073318	N/A	-1	0.0419304347826087	0.0185257290147453	0.0838608695652174	1	1	TRUE	0.916139130434783	1	0.05	0.00398018952329338	8.79748928120989
0.15	9 rapists	a nun	11	UKQuant	1	28	1	simplified	impersonal	d	No	8.44160720445964	N/A	-1	0.0643305785123967	0.0215100298068296	0.128661157024793	-1	1	FALSE	-0.871338842975207	1	0.15	-0.128464960898679	8.57007216535832
0.15	47 pedophiles	5 celebrities	11	UKQuant	1	63	1	simplified	impersonal	d	No	8.16365617616843	N/A	-1	0.099424	0.0257609753668578	0.198848	-1	1	FALSE	-0.801152	1	0.15	-0.160763470675336	8.32441964684377
0.15	an astronaut	53 rapists	11	UKQuant	1	118	1	simplified	impersonal	k	Yes	7.91971976092457	N/A	-1	0.0923083333333333	0.0257641946173335	0.184616666666667	1	1	TRUE	0.815383333333333	1	0.15	-0.125115800477713	8.04483556140229
0.15	a terrorist	a judge	11	UKQuant	1	44	1	simplified	impersonal	d	No	8.29554851622576	N/A	-1	0.929966386554622	0.0231360028785127	0.140067226890756	-1	1	FALSE	-0.859932773109244	1	0.15	-0.154466163579114	8.45001467980488
0.15	a rapist	8 billionaires	11	UKQuant	1	73	1	simplified	impersonal	d	No	8.29429960885724	N/A	-1	0.902706766917293	0.0253995287875023	0.194586466165414	-1	1	FALSE	-0.805413533834586	1	0.15	0.029346705541041	8.26495290331619
0.15	6 elderly people	3 pedophiles	11	UKQuant	1	96	1	simplified	impersonal	k	Yes	7.9251575122247	N/A	-1	0.0573089430894309	0.0202874866735182	0.114617886178862	1	1	TRUE	0.885382113821138	1	0.15	-0.218341429131155	8.14349894135586
0.15	48 soldiers	a hooligan	11	UKQuant	1	103	1	simplified	impersonal	k	Yes	8.4595640785796	N/A	-1	0.902620689655172	0.0267936305090119	0.194758620689655	1	1	TRUE	0.805241379310345	1	0.15	0.349182279084332	8.11038179949527
0.15	3 pedophiles	a soldier	11	UKQuant	1	22	1	simplified	impersonal	d	No	8.43533216493592	N/A	-1	0.0531583333333333	0.0204962876184804	0.106316666666667	-1	1	FALSE	-0.893683333333333	1	0.15	-0.183479031194201	8.61881119613012
0.15	4 nuns	9 rapists	11	UKQuant	1	70	1	simplified	impersonal	k	Yes	7.85166117788927	N/A	-1	0.904123966942149	0.0273286850597947	0.191752066115702	1	1	TRUE	0.808247933884298	1	0.15	-0.430680886162986	8.28234206405225
0.15	a terrorist	50 elderly people	11	UKQuant	1	120	1	simplified	impersonal	d	No	8.24170315972982	N/A	-1	0.940173553719008	0.0213321483207895	0.119652892561984	-1	1	FALSE	-0.880347107438016	1	0.15	0.205080348302467	8.03662281142735
0.25	49 mentors	a thief	11	UKQuant	1	19	1	simplified	impersonal	d	No	8.08332860878638	N/A	-1	0.861852459016393	0.0321203143748862	0.276295081967213	1	0	TRUE	0.723704918032787	0	0.25	-0.560659513312656	8.64398812209903
0.25	3 pedophiles	52 billionaires	11	UKQuant	1	38	1	simplified	impersonal	d	No	7.66949525100769	N/A	-1	0.115887096774194	0.0286167530364714	0.231774193548387	-1	1	FALSE	-0.768225806451613	1	0.25	-0.823915823184405	8.4934110741921
0.25	52 terrorists	an adult	11	UKQuant	1	56	1	simplified	impersonal	d	No	8.54869185847561	N/A	-1	0.10636974789916	0.0280175580146481	0.212739495798319	-1	1	FALSE	-0.787260504201681	1	0.25	0.180002065947431	8.36868979252818
0.25	49 astronauts	a thief	11	UKQuant	1	26	1	simplified	impersonal	d	No	9.07897805377936	N/A	-1	0.880327731092437	0.0297975805200829	0.239344537815126	1	0	TRUE	0.760655462184874	0	0.25	0.492894749050599	8.58608330472876
0.25	a thief	49 mentors	11	UKQuant	1	71	1	simplified	impersonal	d	No	8.61141186665522	N/A	-1	0.861852459016393	0.0321203143748862	0.276295081967213	-1	1	FALSE	-0.723704918032787	1	0.25	0.334908301425237	8.27650356522998
0.25	a soldier	51 assassins	11	UKQuant	1	89	1	simplified	impersonal	k	Yes	7.94590959861313	N/A	-1	0.140443548387097	0.0303604644395498	0.280887096774194	1	1	TRUE	0.719112903225806	1	0.25	-0.232432140202922	8.17834173881606
0.25	52 terrorists	47 university students	11	UKQuant	1	12	1	simplified	impersonal	d	No	9.10642325855641	N/A	-1	0.89753781512605	0.0279932198049622	0.204924369747899	-1	1	FALSE	-0.795075630252101	1	0.25	0.401513036594549	8.70491022196186
0.25	9 adults	a hooligan	11	UKQuant	1	116	1	simplified	impersonal	k	Yes	7.79482315217939	N/A	-1	0.861860655737705	0.0317186271636784	0.27627868852459	1	1	TRUE	0.72372131147541	1	0.25	-0.258345219746864	8.05316837192625
0.25	an assassin	3 olympians	11	UKQuant	1	39	1	simplified	impersonal	d	No	8.2117543973752	N/A	-1	0.854507575757576	0.0290238066178167	0.290984848484849	-1	1	FALSE	-0.709015151515151	1	0.25	-0.274292101989808	8.486046499365
0.25	an assassin	a nun	11	UKQuant	1	58	1	simplified	impersonal	d	No	8.14380797677148	N/A	-1	0.855204724409449	0.0313060077667915	0.289590551181102	-1	1	FALSE	-0.710409448818898	1	0.25	-0.212002919025787	8.35581089579727
0.25	a thief	4 homeless adults	11	UKQuant	1	64	1	simplified	impersonal	d	No	7.98139158158007	N/A	-1	0.873775862068966	0.0297429281702389	0.252448275862069	-1	1	FALSE	-0.747551724137931	1	0.25	-0.336885336135916	8.31827691771599
0.25	50 elderly people	52 terrorists	11	UKQuant	1	42	1	simplified	impersonal	k	Yes	7.92262357421729	N/A	-1	0.879089430894309	0.0285526209201283	0.241821138211382	1	1	TRUE	0.758178861788618	1	0.25	-0.54164714859266	8.46427072280995
0.25	a thief	5 orphans	11	UKQuant	1	82	1	simplified	impersonal	d	No	7.74673290775362	N/A	-1	0.876677685950413	0.028188421161886	0.246644628099173	-1	1	FALSE	-0.753355371900827	1	0.25	-0.468267203936606	8.21500011169023
0.25	a mentor	a hooligan	11	UKQuant	1	20	1	simplified	impersonal	k	Yes	8.53424694598207	N/A	-1	0.119528925619835	0.0295579323156627	0.239057851239669	1	1	TRUE	0.760942148760331	1	0.25	-0.101287895659729	8.63553484164179
0.35	a billionaire	6 thieves	11	UKQuant	1	13	1	simplified	impersonal	k	Yes	8.37655086161377	N/A	-1	0.176035714285714	0.0357760619728297	0.352071428571429	1	1	TRUE	0.647928571428571	1	0.35	-0.3194655995252	8.69601646113897
0.35	47 university students	7 convicts	11	UKQuant	1	67	1	simplified	impersonal	k	Yes	8.45935219172639	N/A	-1	0.841529411764706	0.0330127729796904	0.316941176470588	1	1	TRUE	0.683058823529412	1	0.35	0.15923826373694	8.30011392798945
0.35	50 elderly people	50 thieves	11	UKQuant	1	16	1	simplified	impersonal	d	No	8.55313931818971	N/A	-1	0.806620967741935	0.0362497656562124	0.386758064516129	1	0	TRUE	0.613241935483871	0	0.35	-0.116579827359384	8.66971914554909
0.35	7 assassins	48 nuns	11	UKQuant	1	50	1	simplified	impersonal	d	No	9.05742226555147	N/A	-1	0.814544642857143	0.0365016689060907	0.370910714285714	-1	1	FALSE	-0.629089285714286	1	0.35	0.648955089143685	8.40846717640778
0.35	7 assassins	49 mentors	11	UKQuant	1	101	1	simplified	impersonal	d	No	8.61685751452918	N/A	-1	0.845008403361345	0.0341236006658634	0.309983193277311	-1	1	FALSE	-0.690016806722689	1	0.35	0.49718469716694	8.11967281736224
0.35	50 police officers	7 assassins	11	UKQuant	1	49	1	simplified	impersonal	k	Yes	8.39908510293591	N/A	-1	0.838203703703704	0.0346193578835525	0.323592592592593	1	1	TRUE	0.676407407407407	1	0.35	-0.0161816474139531	8.41526675034986
0.35	9 judges	7 assassins	11	UKQuant	1	76	1	simplified	impersonal	k	Yes	7.57609734062311	N/A	-1	0.188783783783784	0.0368794682936103	0.377567567567568	1	1	TRUE	0.622432432432432	1	0.35	-0.671840863943808	8.24793820456692
0.35	5 hooligans	49 astronauts	11	UKQuant	1	99	1	simplified	impersonal	d	No	7.9098566672694	N/A	-1	0.808825396825397	0.0356051085944641	0.382349206349206	-1	1	FALSE	-0.617650793650794	1	0.35	-0.219242991491462	8.12909965876086
0.35	a hooligan	3 university students	11	UKQuant	1	43	1	simplified	impersonal	d	No	7.793999089504	N/A	-1	0.846992	0.0318455974677518	0.306016	-1	1	FALSE	-0.693984	1	0.35	-0.6631177497167	8.4571168392207
0.35	a mentor	a convict	11	UKQuant	1	97	1	simplified	impersonal	k	Yes	7.57044325205737	N/A	-1	0.157961832061069	0.0317469591606168	0.315923664122137	1	1	TRUE	0.684076335877863	1	0.35	-0.568221057210804	8.13866430926818
0.45	50 elderly people	an addict	11	UKQuant	1	57	1	simplified	impersonal	d	No	8.25322764558177	N/A	-1	0.77809243697479	0.0381200858535111	0.44381512605042	1	0	TRUE	0.55618487394958	0	0.45	-0.108999334794525	8.3622269803763
0.45	52 terrorists	4 members of parliament	11	UKQuant	1	30	1	simplified	impersonal	d	No	8.06211758275474	N/A	-1	0.792653846153846	0.0345033178184206	0.414692307692308	-1	1	FALSE	-0.585307692307692	1	0.45	-0.492174134448058	8.5542917172028
0.45	5 astronauts	an addict	11	UKQuant	1	114	1	simplified	impersonal	k	Yes	7.66011431917393	N/A	-1	0.757836206896552	0.0405528528826384	0.484327586206897	1	1	TRUE	0.515672413793103	1	0.45	-0.40150867896647	8.0616229981404
0.45	3 olympians	51 assassins	11	UKQuant	1	46	1	simplified	impersonal	d	No	8.39773375137891	N/A	-1	0.761419847328244	0.0357325263195461	0.477160305343511	1	0	TRUE	0.522839694656489	0	0.45	-0.0382302889093413	8.43596404028825
0.45	an assassin	4 members of parliament	11	UKQuant	1	9	1	simplified	impersonal	d	No	9.08398318309966	N/A	-1	0.776194029850746	0.0364770377240266	0.447611940298507	-1	1	FALSE	-0.552388059701493	1	0.45	0.352001155174346	8.73198202792531
0.45	a convict	9 rapists	11	UKQuant	1	105	1	simplified	impersonal	k	Yes	8.4848765899397	N/A	-1	0.209346456692913	0.0350957674920812	0.418692913385827	1	1	TRUE	0.581307086614173	1	0.45	0.383651941748257	8.10122464819144
0.45	an addict	an adult	11	UKQuant	1	27	1	simplified	impersonal	d	No	8.42310226801664	N/A	-1	0.221591304347826	0.0379919400464293	0.443182608695652	-1	1	FALSE	-0.556817391304348	1	0.45	-0.154946420995351	8.57804868901199
0.45	50 police officers	a convict	11	UKQuant	1	51	1	simplified	impersonal	k	Yes	8.63905677917308	N/A	-1	0.795606557377049	0.0367264157569131	0.408786885245902	1	1	TRUE	0.591213114754098	1	0.45	0.237340014271684	8.40171676490139
0.45	an addict	49 mentors	11	UKQuant	1	74	1	simplified	impersonal	d	No	8.40893960597598	N/A	-1	0.753483333333333	0.0401252037555059	0.493033333333333	-1	1	FALSE	-0.506966666666667	1	0.45	0.149699473972722	8.25924013200326
0.55	6 elderly people	a member of parliament	11	UKQuant	1	104	1	simplified	impersonal	k	Yes	7.80832305039106	N/A	-1	0.712587719298246	0.0435253889067707	0.574824561403509	1	1	TRUE	0.425175438596491	1	0.55	-0.297463561336229	8.10578661172728
0.55	53 judges	a convict	11	UKQuant	1	112	1	simplified	impersonal	k	Yes	7.9218984110238	N/A	-1	0.741617647058823	0.0374988526413348	0.516764705882353	1	1	TRUE	0.483235294117647	1	0.55	-0.148302809820132	8.07020122084393
0.55	49 orphans	4 nuns	11	UKQuant	1	78	1	simplified	impersonal	k	Yes	7.82564473221999	N/A	-1	0.294552845528455	0.0406765218000185	0.589105691056911	1	1	TRUE	0.410894308943089	1	0.55	-0.411154385000279	8.23679911722027
0.55	8 terrorists	a thief	11	UKQuant	1	45	1	simplified	impersonal	d	No	8.89781900951076	N/A	-1	0.2617	0.0383912678222608	0.5234	-1	1	FALSE	-0.4766	1	0.55	0.454855138925572	8.44296387058519
0.55	an addict	a mentor	11	UKQuant	1	81	1	simplified	impersonal	d	No	7.53369370984863	N/A	-1	0.745344537815126	0.0410919175574186	0.509310924369748	-1	1	FALSE	-0.490689075630252	1	0.55	-0.686696978403694	8.22039068825233
0.55	9 judges	a convict	11	UKQuant	1	59	1	simplified	impersonal	k	Yes	7.91095738284559	N/A	-1	0.72644	0.0385199453035202	0.54712	1	1	TRUE	0.45288	1	0.55	-0.438483818094739	8.34944120094033
0.55	51 convicts	48 homeless adults	11	UKQuant	1	31	1	simplified	impersonal	d	No	8.50875771259514	N/A	-1	0.739585585585586	0.0404577044914491	0.520828828828829	-1	1	FALSE	-0.479171171171171	1	0.55	-0.0377292491572021	8.54648696175234
0.55	a nun	49 orphans	11	UKQuant	1	69	1	simplified	impersonal	d	No	8.66440557109662	N/A	-1	0.721217741935484	0.0398828414768817	0.557564516129032	-1	1	FALSE	-0.442435483870968	1	0.55	0.376182487136896	8.28822308395973
0.55	an orphan	5 celebrities	11	UKQuant	1	111	1	simplified	impersonal	k	Yes	8.29354951506035	N/A	-1	0.288248	0.0403262284462693	0.576496	1	1	TRUE	0.423504	1	0.55	0.219012270573307	8.07453724448704
0.55	an olympian	4 soldiers	11	UKQuant	1	10	1	simplified	impersonal	d	No	8.1969879272589	N/A	-1	0.70485593220339	0.0421705617616118	0.59028813559322	-1	1	FALSE	-0.40971186440678	1	0.55	-0.525904604650282	8.72289253190918
0.55	an elderly person	4 members of parliament	11	UKQuant	1	93	1	simplified	impersonal	d	No	8.87290767425985	N/A	-1	0.259111111111111	0.0384159167659428	0.518222222222222	1	0	TRUE	0.481777777777778	0	0.55	0.714692548784715	8.15821512547513
0.55	an addict	a thief	11	UKQuant	1	113	1	simplified	impersonal	d	No	8.18785544369562	N/A	-1	0.290103448275862	0.0419275379867255	0.580206896551724	1	0	TRUE	0.419793103448276	0	0.55	0.12195889607707	8.06589654761855
0.65	5 hooligans	48 members of parliament	11	UKQuant	1	90	1	simplified	impersonal	d	No	8.56483984488359	N/A	-1	0.680821705426357	0.0413696492853217	0.638356589147287	-1	1	FALSE	-0.361643410852713	1	0.65	0.391584659349661	8.17325518553393
0.65	a homeless adult	an elderly person	11	UKQuant	1	5	1	simplified	impersonal	d	No	9.02087334702136	N/A	-1	0.320427419354839	0.0418194747748887	0.640854838709677	-1	1	FALSE	-0.359145161290323	1	0.65	0.251866519280343	8.76900682774101
0.65	6 elderly people	a nun	11	UKQuant	1	62	1	simplified	impersonal	k	Yes	8.10982627601848	N/A	-1	0.662277777777778	0.0421378351567738	0.675444444444445	1	1	TRUE	0.324555555555555	1	0.65	-0.220780836711031	8.33060711272951
0.65	an assassin	an addict	11	UKQuant	1	77	1	simplified	impersonal	d	No	7.96935774201635	N/A	-1	0.694247933884298	0.04216497339607	0.611504132231405	-1	1	FALSE	-0.388495867768595	1	0.65	-0.272990711303324	8.24234845331967
0.65	6 addicts	50 police officers	11	UKQuant	1	53	1	simplified	impersonal	d	No	8.38206051742474	N/A	-1	0.655513043478261	0.0437676265354057	0.688973913043478	-1	1	FALSE	-0.311026086956522	1	0.65	-0.00630149251946044	8.3883620099442
0.65	a thief	50 addicts	11	UKQuant	1	109	1	simplified	impersonal	d	No	8.42617379302907	N/A	-1	0.677901639344262	0.0418196804968908	0.644196721311475	-1	1	FALSE	-0.355803278688525	1	0.65	0.342869535054486	8.08330425797458
0.65	a member of parliament	6 police officers	11	UKQuant	1	88	1	simplified	impersonal	d	No	8.7212762399917	N/A	-1	0.667580357142857	0.0444212278893366	0.664839285714286	-1	1	FALSE	-0.335160714285714	1	0.65	0.537810903137309	8.1834653368544
0.65	6 addicts	4 homeless adults	11	UKQuant	1	94	1	simplified	impersonal	d	No	8.1958853913148	N/A	-1	0.661243697478992	0.0428147876176121	0.677512605042017	-1	1	FALSE	-0.322487394957983	1	0.65	0.0426112992197591	8.15327409209504
0.65	6 addicts	a hooligan	11	UKQuant	1	108	1	simplified	impersonal	d	No	8.09346227450118	N/A	-1	0.656446280991736	0.0430627289398266	0.687107438016529	1	0	TRUE	0.312892561983471	0	0.65	0.00572656503888958	8.08773570946229
0.65	6 addicts	a thief	11	UKQuant	1	4	1	simplified	impersonal	d	No	8.61341204915678	N/A	-1	0.681685950413223	0.0416935351984467	0.636628099173554	1	0	TRUE	0.363371900826446	0	0.65	-0.165020119474542	8.77843216863132
0.65	a rapist	51 convicts	11	UKQuant	1	36	1	simplified	impersonal	d	No	8.43554920237573	N/A	-1	0.661823529411765	0.0436011153632433	0.676352941176471	-1	1	FALSE	-0.323647058823529	1	0.65	-0.0727523180301031	8.50830152040583
0.65	5 celebrities	5 orphans	11	UKQuant	1	23	1	simplified	impersonal	d	No	8.09101504171053	N/A	-1	0.304578125	0.0398083235334574	0.60915625	-1	1	FALSE	-0.39084375	1	0.65	-0.519524908750739	8.61053995046127
0.65	50 addicts	a university student	11	UKQuant	1	117	1	simplified	impersonal	d	No	8.25945819533241	N/A	-1	0.319396694214876	0.042205820614318	0.638793388429752	-1	1	FALSE	-0.361206611570248	1	0.65	0.210471345336087	8.04898684999632
0.75	48 soldiers	49 mentors	11	UKQuant	1	32	1	simplified	impersonal	k	Yes	9.07406235368355	N/A	-1	0.637900826446281	0.0425567034516162	0.724198347107438	1	1	TRUE	0.275801652892562	1	0.75	0.535323717259566	8.53873863642399
0.75	a convict	6 addicts	11	UKQuant	1	55	1	simplified	impersonal	d	No	8.64628976475065	N/A	-1	0.609809160305343	0.0433612252300273	0.780381679389313	-1	1	FALSE	-0.219618320610687	1	0.75	0.271090092186437	8.37519967256421
0.75	a nun	49 astronauts	11	UKQuant	1	17	1	simplified	impersonal	d	No	8.79026911147866	N/A	-1	0.638032520325203	0.0444406897877451	0.723934959349593	-1	1	FALSE	-0.276065040650407	1	0.75	0.129189287423525	8.66107982405513
0.75	50 addicts	an olympian	11	UKQuant	1	100	1	simplified	impersonal	d	No	8.4595640785796	N/A	-1	0.372461538461538	0.0437119721475377	0.744923076923077	-1	1	FALSE	-0.255076923076923	1	0.75	0.335194941882685	8.12436913669692
0.75	52 billionaires	an orphan	11	UKQuant	1	11	1	simplified	impersonal	k	Yes	8.859647499715	N/A	-1	0.387032520325203	0.0421243519030825	0.774065040650406	-1	0	FALSE	-0.225934959349594	0	0.75	0.145778744739095	8.7138687549759
0.75	6 elderly people	a judge	11	UKQuant	1	52	1	simplified	impersonal	d	No	8.70946507906336	N/A	-1	0.639691056910569	0.0451682482341156	0.720617886178862	1	0	TRUE	0.279382113821138	0	0.75	0.314449918688045	8.39501516037532
0.75	48 members of parliament	a mentor	11	UKQuant	1	119	1	simplified	impersonal	k	Yes	8.35113860708615	N/A	-1	0.399688	0.0439677588673771	0.799376	-1	0	FALSE	-0.200624	0	0.75	0.310424319535764	8.04071428755039
0.75	6 elderly people	an astronaut	11	UKQuant	1	85	1	simplified	impersonal	k	Yes	8.08733292647335	N/A	-1	0.622157480314961	0.0427358614152786	0.755685039370079	1	1	TRUE	0.244314960629921	1	0.75	-0.111728180797053	8.1990611072704
0.85	47 university students	48 nuns	11	UKQuant	1	14	1	simplified	impersonal	k	Yes	8.53699581871242	N/A	-1	0.584362068965517	0.0463173145696514	0.831275862068966	1	1	TRUE	0.168724137931034	1	0.85	-0.150191185477432	8.68718700418985
0.85	3 university students	50 police officers	11	UKQuant	1	29	1	simplified	impersonal	d	No	8.21419441485256	N/A	-1	0.431579831932773	0.0456352252325989	0.863159663865546	-1	1	FALSE	-0.136840336134454	1	0.85	-0.347958898896605	8.56215331374917
0.85	48 homeless adults	9 judges	11	UKQuant	1	66	1	simplified	impersonal	d	No	8.60428789826717	N/A	-1	0.59230701754386	0.0446726460682712	0.815385964912281	1	0	TRUE	0.184614035087719	0	0.85	0.298163520021154	8.30612437824602
0.85	48 nuns	50 police officers	11	UKQuant	1	83	1	simplified	impersonal	d	No	8.24931374626064	N/A	-1	0.436627272727273	0.0474937598793295	0.873254545454545	-1	1	FALSE	-0.126745454545455	1	0.85	0.0396652360620386	8.2096485101986
0.85	an elderly person	5 astronauts	11	UKQuant	1	68	1	simplified	impersonal	k	Yes	8.80086724247048	N/A	-1	0.434491379310345	0.0462176244799536	0.86898275862069	1	1	TRUE	0.13101724137931	1	0.85	0.506720307842116	8.29414693462836
0.85	5 orphans	52 billionaires	11	UKQuant	1	106	1	simplified	impersonal	k	Yes	7.61529833982581	N/A	-1	0.569857142857143	0.0432612550353412	0.860285714285714	1	1	TRUE	0.139714285714286	1	0.85	-0.481397328843311	8.09669566866913
0.85	a mentor	an orphan	11	UKQuant	1	1	1	simplified	impersonal	d	No	8.80971354050827	N/A	-1	0.405491803278689	0.0461780602855513	0.810983606557377	-1	1	FALSE	-0.189016393442623	1	0.85	0.00259148412269461	8.80712205638557
0.85	49 orphans	50 elderly people	11	UKQuant	1	7	1	simplified	impersonal	k	Yes	9.32241827538153	N/A	-1	0.56390243902439	0.0442518659945171	0.872195121951219	1	1	TRUE	0.127804878048781	1	0.85	0.572058180192883	8.75036009518865
0.85	7 convicts	an assassin	11	UKQuant	1	54	1	simplified	impersonal	k	Yes	9.09851455679393	N/A	-1	0.561661290322581	0.0460506406510961	0.876677419354839	1	1	TRUE	0.123322580645161	1	0.85	0.716757593519789	8.38175696327414
0.85	5 astronauts	5 orphans	11	UKQuant	1	48	1	simplified	impersonal	d	No	8.56826646160024	N/A	-1	0.438148760330579	0.0464263517883954	0.876297520661157	-1	1	FALSE	-0.123702479338843	1	0.85	0.146150616828507	8.42211584477173
0.85	50 elderly people	53 judges	11	UKQuant	1	60	1	simplified	impersonal	d	No	8.51779301148821	N/A	-1	0.563255813953488	0.0440393830572247	0.873488372093023	1	0	TRUE	0.126511627906977	0	0.85	0.174675451090769	8.34311756039744
0.85	53 adults	an adult	11	UKQuant	1	65	1	simplified	impersonal	k	Yes	9.04204005654448	N/A	-1	0.564466666666667	0.0460274758000971	0.871066666666667	1	1	TRUE	0.128933333333333	1	0.85	0.729861454655058	8.31217860188942
0.85	5 mentors	47 university students	11	UKQuant	1	41	1	simplified	impersonal	d	No	8.90801832278489	N/A	-1	0.551465517241379	0.0465183614629423	0.897068965517241	-1	1	FALSE	-0.102931034482759	1	0.85	0.436541615511317	8.47147670727357
0.85	9 judges	3 university students	11	UKQuant	1	37	1	simplified	impersonal	k	Yes	8.61758136544751	N/A	-1	0.575639344262295	0.0462456719851864	0.84872131147541	-1	0	FALSE	-0.15127868852459	0	0.85	0.11675208111498	8.50082928433253
0.85	48 members of parliament	48 nuns	11	UKQuant	1	95	1	simplified	impersonal	k	Yes	8.31996102188653	N/A	-1	0.41753781512605	0.0429387426665945	0.835075630252101	-1	0	FALSE	-0.164924369747899	0	0.85	0.171592238398558	8.14836878348797
0.85	5 orphans	49 orphans	11	UKQuant	1	72	1	simplified	impersonal	d	No	9.09851455679393	N/A	-1	0.570081300813008	0.0436172477259378	0.859837398373984	-1	1	FALSE	-0.140162601626016	1	0.85	0.827807276737934	8.27070728005599
0.85	8 billionaires	49 celebrities	11	UKQuant	1	33	1	simplified	impersonal	d	No	8.82276429670376	N/A	-1	0.449458015267176	0.0422786616405579	0.898916030534351	1	0	TRUE	0.101083969465649	0	0.85	0.291717963488368	8.53104633321539
0.85	51 assassins	52 terrorists	11	UKQuant	1	98	1	simplified	impersonal	d	No	8.00469951054955	N/A	-1	0.592137096774194	0.0444125018899211	0.815725806451613	1	0	TRUE	0.184274193548387	0	0.85	-0.129165122098906	8.13386463264846
0.85	53 judges	5 orphans	11	UKQuant	1	79	1	simplified	impersonal	k	Yes	7.48717369421374	N/A	-1	0.566108527131783	0.0457745761887091	0.867782945736434	-1	0	FALSE	-0.132217054263566	0	0.85	-0.744116209844449	8.23128990405819
0.95	49 astronauts	5 mentors	11	UKQuant	1	24	1	simplified	impersonal	k	Yes	8.4040244933106	N/A	-1	0.526034188034188	0.0467043332411241	0.947931623931624	1	1	TRUE	0.052068376068376	1	0.95	-0.198304014432226	8.60232850774283
0.95	49 mentors	5 astronauts	11	UKQuant	1	86	1	simplified	impersonal	k	Yes	8.7558950816463	N/A	-1	0.510754098360656	0.0463347617435891	0.978491803278688	1	1	TRUE	0.021508196721312	1	0.95	0.562070333311691	8.19382474833461
0.95	49 celebrities	a nun	11	UKQuant	1	87	1	simplified	impersonal	k	Yes	7.52294091807237	N/A	-1	0.500110236220472	0.0446575203826454	0.999779527559055	1	1	TRUE	0.00022047244094503	1	0.95	-0.665685331369085	8.18862624944146
0.95	52 billionaires	48 nuns	11	UKQuant	1	107	1	simplified	impersonal	k	Yes	7.80506704425849	N/A	-1	0.499388429752066	0.0448113195819421	0.998776859504132	1	1	TRUE	0.00122314049586802	1	0.95	-0.287132390420085	8.09219943467857
0.95	47 university students	49 mentors	11	UKQuant	1	18	1	simplified	impersonal	d	No	8.99714715151514	N/A	-1	0.527418032786885	0.0450567673169402	0.945163934426229	1	0	TRUE	0.054836065573771	0	0.95	0.344644184733284	8.65250296678186
0.95	7 convicts	a convict	11	UKQuant	1	102	1	simplified	impersonal	d	No	8.20603776277881	N/A	-1	0.455387596899225	0.0452051530014001	0.91077519379845	-1	1	FALSE	-0.08922480620155	1	0.95	0.0910273093153293	8.11501045346349
0.95	3 university students	4 nuns	11	UKQuant	1	8	1	simplified	impersonal	k	Yes	9.13432288555227	N/A	-1	0.516674418604651	0.043552346761855	0.966651162790698	1	1	TRUE	0.033348837209302	1	0.95	0.393185163903777	8.74113772164849
0.95	49 astronauts	6 police officers	11	UKQuant	1	84	1	simplified	impersonal	k	Yes	8.40938523878193	N/A	-1	0.512082644628099	0.0461344475348837	0.975834710743802	1	1	TRUE	0.024165289256198	1	0.95	0.205049636802947	8.20433560197898
0.95	an orphan	53 adults	11	UKQuant	1	47	1	simplified	impersonal	d	No	7.89282552625112	N/A	-1	0.498545454545455	0.0456655923619421	0.997090909090909	1	0	TRUE	0.00290909090909097	0	0.95	-0.536189294073983	8.4290148203251
0.95	an assassin	49 hooligans	11	UKQuant	1	110	1	simplified	impersonal	d	No	8.10922495308995	N/A	-1	0.513157024793388	0.044211519262517	0.973685950413223	-1	1	FALSE	-0.026314049586777	1	0.95	0.0303201062207528	8.0789048468692
0.95	5 astronauts	a police officer	11	UKQuant	1	25	1	simplified	impersonal	k	Yes	9.09896178399279	N/A	-1	0.490212598425197	0.045909594465976	0.980425196850394	-1	0	FALSE	-0.019574803149606	0	0.95	0.504785348406672	8.59417643558612
0.95	48 nuns	8 billionaires	11	UKQuant	1	115	1	simplified	impersonal	k	Yes	7.77022320415879	N/A	-1	0.49690243902439	0.046058854380966	0.99380487804878	-1	0	FALSE	-0.00619512195121996	0	0.95	-0.287157143219048	8.05738034737783
0.95	a billionaire	53 judges	11	UKQuant	1	6	1	simplified	impersonal	d	No	8.830689198761	N/A	-1	0.498579831932773	0.0455217024345724	0.997159663865546	1	0	TRUE	0.002840336134454	0	0.95	0.0710395645941109	8.75964963416689
0.95	52 billionaires	an astronaut	11	UKQuant	1	75	1	simplified	impersonal	d	No	8.3354314778808	N/A	-1	0.47421875	0.0437495531222708	0.9484375	-1	1	FALSE	-0.0515625	1	0.95	0.0818628125801109	8.25356866530069
0.95	a billionaire	an olympian	11	UKQuant	1	15	1	simplified	impersonal	k	Yes	8.18618599422608	N/A	-1	0.483037735849057	0.0492887219789616	0.966075471698113	-1	0	FALSE	-0.033924528301887	0	0.95	-0.49223539195707	8.67842138618315
0.95	52 billionaires	4 nuns	11	UKQuant	1	80	1	simplified	impersonal	k	Yes	7.59186171488993	N/A	-1	0.477119047619048	0.0434550374561522	0.954238095238095	1	1	TRUE	0.045761904761905	1	0.95	-0.63395880884571	8.22582052373564
0.95	51 convicts	6 thieves	11	UKQuant	1	21	1	simplified	impersonal	k	Yes	8.97966855424118	N/A	-1	0.522654867256637	0.0469348099232354	0.954690265486726	1	1	TRUE	0.045309734513274	1	0.95	0.352525873954113	8.62714268028707
0.05	6 elderly people	a pedophile	52	UKQuant	1	51	1	simplified	impersonal	d	Yes	8.21283958467648	N/A	-1	0.969692913385827	0.015268199687301	0.0606141732283465	1	1	TRUE	0.939385826771653	1	0.05	-0.0326710607277398	8.24551064540422
0.05	a pedophile	53 adults	52	UKQuant	1	52	1	simplified	impersonal	k	No	7.72400465667607	N/A	-1	0.952873015873016	0.0188009285963525	0.0942539682539683	-1	1	FALSE	-0.905746031746032	1	0.05	-0.519493402425693	8.24349805910176
0.05	a pedophile	a police officer	52	UKQuant	1	53	1	simplified	impersonal	k	No	7.568895663407	N/A	-1	0.0429469696969697	0.0173328857911232	0.0858939393939394	-1	1	FALSE	-0.914106060606061	1	0.05	-0.672715134383124	8.24161079779012
0.05	47 university students	a pedophile	52	UKQuant	1	106	1	simplified	impersonal	d	Yes	7.85748078694253	N/A	-1	0.961154471544715	0.0175001758191584	0.0776910569105691	1	1	TRUE	0.922308943089431	1	0.05	-0.356651174547048	8.21413196148958
0.05	a rapist	6 elderly people	52	UKQuant	1	93	1	simplified	impersonal	k	No	7.94165125293056	N/A	-1	0.961738461538462	0.01668367027154	0.0765230769230769	-1	1	FALSE	-0.923476923076923	1	0.05	-0.273710730797764	8.21536198372832
0.05	a rapist	an astronaut	52	UKQuant	1	55	1	simplified	impersonal	k	No	7.56371966841437	N/A	-1	0.0485230769230769	0.0188094070558801	0.0970461538461539	-1	1	FALSE	-0.902953846153846	1	0.05	-0.674461851430847	8.23818151984521
0.15	4 soldiers	6 thieves	52	UKQuant	1	101	1	simplified	impersonal	d	Yes	8.82951909478078	N/A	-1	0.918112903225806	0.0237142454055405	0.163774193548387	1	1	TRUE	0.836225806451613	1	0.15	0.615030230923299	8.21448886385748
0.15	a terrorist	48 homeless adults	52	UKQuant	1	32	1	simplified	impersonal	k	No	8.62640627638955	N/A	-1	0.91857264957265	0.025777935578661	0.162854700854701	-1	1	FALSE	-0.837145299145299	1	0.15	0.303568220163777	8.32283805622578
0.15	3 pedophiles	50 police officers	52	UKQuant	1	25	1	simplified	impersonal	k	No	8.14380797677148	N/A	-1	0.0847079646017699	0.0255246999779028	0.16941592920354	-1	1	FALSE	-0.83058407079646	1	0.15	-0.241353863394442	8.38516184016593
0.15	9 adults	53 rapists	52	UKQuant	1	18	1	simplified	impersonal	d	Yes	8.34806422840827	N/A	-1	0.0820252100840336	0.0255317159604739	0.164050420168067	1	1	TRUE	0.835949579831933	1	0.15	-0.134846345888029	8.48291057429629
0.15	a pedophile	5 celebrities	52	UKQuant	1	7	1	simplified	impersonal	k	No	8.5016733797582	N/A	-1	0.912453846153846	0.0236584402021502	0.175092307692308	-1	1	FALSE	-0.824907692307692	1	0.15	-0.258609142658107	8.76028252241631
0.15	47 pedophiles	5 orphans	52	UKQuant	1	116	1	simplified	impersonal	k	No	8.48260174664662	N/A	-1	0.0622892561983471	0.0223047346871045	0.124578512396694	-1	1	FALSE	-0.875421487603306	1	0.15	0.268916208612719	8.2136855380339
0.15	7 assassins	a soldier	52	UKQuant	1	103	1	simplified	impersonal	k	No	7.74196789982069	N/A	-1	0.0968879310344828	0.0268650215700983	0.193775862068966	-1	1	FALSE	-0.806224137931034	1	0.15	-0.472364316394793	8.21433221621548
0.15	a terrorist	3 university students	52	UKQuant	1	36	1	simplified	impersonal	k	No	8.02289686960146	N/A	-1	0.944704	0.0196616114030097	0.110592	-1	1	FALSE	-0.889408	1	0.15	-0.275076717189568	8.29797358679103
0.15	a pedophile	48 homeless adults	52	UKQuant	1	75	1	simplified	impersonal	k	No	7.83042561782033	N/A	-1	0.938188524590164	0.0210943255053596	0.123622950819672	-1	1	FALSE	-0.876377049180328	1	0.15	-0.389672703771564	8.22009832159189
0.15	49 mentors	a terrorist	52	UKQuant	1	97	1	simplified	impersonal	d	Yes	7.87359778968554	N/A	-1	0.931836065573771	0.0229097348247799	0.136327868852459	1	1	TRUE	0.863672131147541	1	0.15	-0.341271805214815	8.21486959490035
0.15	a rapist	an olympian	52	UKQuant	1	86	1	simplified	impersonal	k	No	8.78462153484075	N/A	-1	0.0509416666666667	0.0199024268043828	0.101883333333333	-1	1	FALSE	-0.898116666666667	1	0.15	0.568025358884478	8.21659617595627
0.15	an adult	47 pedophiles	52	UKQuant	1	92	1	simplified	impersonal	d	Yes	8.38343320123671	N/A	-1	0.060982905982906	0.0219998744847966	0.121965811965812	1	1	TRUE	0.878034188034188	1	0.15	0.167927028213963	8.21550617302275
0.15	53 rapists	5 astronauts	52	UKQuant	1	21	1	simplified	impersonal	k	No	8.73825457652612	N/A	-1	0.905460869565217	0.0270870881695724	0.189078260869565	-1	1	FALSE	-0.810921739130435	1	0.15	0.302658386455516	8.43559619007061
0.15	9 judges	9 rapists	52	UKQuant	1	57	1	simplified	impersonal	d	Yes	8.28626945278307	N/A	-1	0.90419298245614	0.0284194449572541	0.191614035087719	1	1	TRUE	0.808385964912281	1	0.15	0.0511034218459052	8.23516603093716
0.15	a celebrity	9 rapists	52	UKQuant	1	43	1	simplified	impersonal	d	Yes	8.51539156946961	N/A	-1	0.0942072072072072	0.0278664227109997	0.188414414414414	1	1	TRUE	0.811585585585586	1	0.15	0.2481440220499	8.26724754741971
0.25	52 billionaires	a terrorist	52	UKQuant	1	112	1	simplified	impersonal	d	Yes	8.41869794466714	N/A	-1	0.878178861788618	0.029160379887999	0.243642276422764	1	1	TRUE	0.756357723577236	1	0.25	0.204867268626034	8.21383067604111
0.25	52 terrorists	an adult	52	UKQuant	1	6	1	simplified	impersonal	k	No	8.44074401925283	N/A	-1	0.10636974789916	0.0280175580146481	0.212739495798319	-1	1	FALSE	-0.787260504201681	1	0.25	-0.355868546049331	8.79661256530216
0.25	49 mentors	an assassin	52	UKQuant	1	60	1	simplified	impersonal	d	Yes	8.12118324207883	N/A	-1	0.8812890625	0.0289745073854686	0.237421875	1	1	TRUE	0.762578125	1	0.25	-0.110127857516689	8.23131109959552
0.25	49 orphans	49 hooligans	52	UKQuant	1	109	1	simplified	impersonal	d	Yes	7.96102146588337	N/A	-1	0.101508474576271	0.0278893996257915	0.203016949152542	1	1	TRUE	0.796983050847458	1	0.25	-0.252945369649266	8.21396683553264
0.25	47 pedophiles	48 members of parliament	52	UKQuant	1	17	1	simplified	impersonal	k	No	8.70499967844076	N/A	-1	0.116305785123967	0.0296722547066419	0.232611570247934	-1	1	FALSE	-0.767388429752066	1	0.25	0.204178151735924	8.50082152670484
0.25	47 pedophiles	49 celebrities	52	UKQuant	1	24	1	simplified	impersonal	k	No	8.46611040118692	N/A	-1	0.103016260162602	0.0282229888846025	0.206032520325203	-1	1	FALSE	-0.793967479674797	1	0.25	0.069528685991374	8.39658171519555
0.25	a thief	5 astronauts	52	UKQuant	1	20	1	simplified	impersonal	k	No	7.74586822979227	N/A	-1	0.875389830508475	0.0291680957601316	0.249220338983051	-1	1	FALSE	-0.750779661016949	1	0.25	-0.704496965817928	8.4503651956102
0.25	a convict	48 soldiers	52	UKQuant	1	102	1	simplified	impersonal	k	No	8.27461194620955	N/A	-1	0.886063492063492	0.0281515061216353	0.227873015873016	-1	1	FALSE	-0.772126984126984	1	0.25	0.0602039231770988	8.21440802303245
0.25	9 rapists	8 billionaires	52	UKQuant	1	35	1	simplified	impersonal	k	No	8.38548870041881	N/A	-1	0.899064	0.0260546108538728	0.201872	-1	1	FALSE	-0.798128	1	0.25	0.0818850393994186	8.30360366101939
0.35	49 mentors	7 convicts	52	UKQuant	1	73	1	simplified	impersonal	d	Yes	8.27486682068525	N/A	-1	0.811138211382114	0.0344057212178766	0.377723577235772	1	1	TRUE	0.622276422764228	1	0.35	0.0538206194943349	8.22104620119092
0.35	50 thieves	6 police officers	52	UKQuant	1	69	1	simplified	impersonal	d	Yes	8.77090474429687	N/A	-1	0.177178861788618	0.0355920402866692	0.354357723577236	-1	0	FALSE	-0.645642276422764	0	0.35	0.547554728100188	8.22335001619668
0.35	53 rapists	48 members of parliament	52	UKQuant	1	46	1	simplified	impersonal	k	No	7.83201418050547	N/A	-1	0.838941176470588	0.0340941518894186	0.322117647058824	-1	1	FALSE	-0.677882352941176	1	0.35	-0.42575068234293	8.2577648628484
0.35	50 thieves	47 olympians	52	UKQuant	1	41	1	simplified	impersonal	k	No	8.53993267838573	N/A	-1	0.806254098360656	0.0351386173226178	0.387491803278688	-1	1	FALSE	-0.612508196721312	1	0.35	0.265267377546012	8.27466530083971
0.35	5 hooligans	49 astronauts	52	UKQuant	1	72	1	simplified	impersonal	k	No	8.57772369115627	N/A	-1	0.808825396825397	0.0356051085944641	0.382349206349206	-1	1	FALSE	-0.617650793650794	1	0.35	0.356155835983357	8.22156785517291
0.35	6 elderly people	51 convicts	52	UKQuant	1	115	1	simplified	impersonal	d	Yes	7.91826468609527	N/A	-1	0.177215517241379	0.0354200551751159	0.354431034482759	1	1	TRUE	0.645568965517241	1	0.35	-0.295453715610062	8.21371840170534
0.35	a homeless adult	6 thieves	52	UKQuant	1	114	1	simplified	impersonal	d	Yes	8.06589354696427	N/A	-1	0.171291338582677	0.0346302997644922	0.342582677165354	1	1	TRUE	0.657417322834646	1	0.35	-0.147859900749038	8.21375344771331
0.35	a convict	6 police officers	52	UKQuant	1	10	1	simplified	impersonal	k	No	8.27486682068525	N/A	-1	0.820361538461538	0.033382509880631	0.359276923076923	-1	1	FALSE	-0.640723076923077	1	0.35	-0.389444612710847	8.6643114333961
0.45	51 assassins	8 billionaires	52	UKQuant	1	47	1	simplified	impersonal	k	No	9.02352874990936	N/A	-1	0.226792307692308	0.0359153430239396	0.453584615384615	-1	1	FALSE	-0.546415384615385	1	0.45	0.768539551044563	8.2549891988648
0.45	6 thieves	4 nuns	52	UKQuant	1	28	1	simplified	impersonal	d	Yes	8.81714962474341	N/A	-1	0.795434426229508	0.0377568862902297	0.409131147540984	-1	0	FALSE	-0.590868852459016	0	0.45	0.462155044399076	8.35499458034433
0.45	an addict	4 homeless adults	52	UKQuant	1	9	1	simplified	impersonal	k	No	8.86304982791909	N/A	-1	0.758587719298246	0.0400776729641852	0.482824561403509	-1	1	FALSE	-0.517175438596491	1	0.45	0.168781383170606	8.69426844474848
0.45	47 pedophiles	a convict	52	UKQuant	1	48	1	simplified	impersonal	k	No	8.26333266743997	N/A	-1	0.210859375	0.0357816567226448	0.42171875	-1	1	FALSE	-0.57828125	1	0.45	0.0109462902499136	8.25238637719005
0.45	50 police officers	51 assassins	52	UKQuant	1	89	1	simplified	impersonal	d	Yes	8.19973896063079	N/A	-1	0.787155172413793	0.0374765075034358	0.425689655172414	1	1	TRUE	0.574310344827586	1	0.45	-0.0162598158215328	8.21599877645232
0.45	51 assassins	a homeless adult	52	UKQuant	1	45	1	simplified	impersonal	d	Yes	9.10074869534609	N/A	-1	0.232770992366412	0.036678605323248	0.465541984732824	-1	0	FALSE	-0.534458015267176	0	0.45	0.840023848483192	8.2607248468629
0.45	5 celebrities	7 assassins	52	UKQuant	1	98	1	simplified	impersonal	d	Yes	7.71824095195932	N/A	-1	0.764768595041322	0.0386866412105177	0.470462809917355	1	1	TRUE	0.529537190082645	1	0.45	-0.496524093759061	8.21476504571838
0.45	4 nuns	a hooligan	52	UKQuant	1	14	1	simplified	impersonal	d	Yes	8.489616423646	N/A	-1	0.788809917355372	0.0367939461699361	0.422380165289256	1	1	TRUE	0.577619834710744	1	0.45	-0.072395475188042	8.56201189883405
0.45	a thief	52 billionaires	52	UKQuant	1	83	1	simplified	impersonal	k	No	8.23721470334949	N/A	-1	0.787439024390244	0.0381559890843827	0.425121951219512	-1	1	FALSE	-0.574878048780488	1	0.45	0.0198940375786805	8.21732066577081
0.45	6 thieves	49 celebrities	52	UKQuant	1	30	1	simplified	impersonal	k	No	8.0040315078527	N/A	-1	0.766975806451613	0.0380968726024473	0.466048387096774	-1	1	FALSE	-0.533951612903226	1	0.45	-0.333852498678713	8.33788400653141
0.45	51 convicts	5 astronauts	52	UKQuant	1	49	1	simplified	impersonal	k	No	8.00369733909437	N/A	-1	0.7686875	0.0400817320113771	0.462625	-1	1	FALSE	-0.537375	1	0.45	-0.246248295732574	8.24994563482694
0.45	a member of parliament	48 soldiers	52	UKQuant	1	34	1	simplified	impersonal	k	No	7.8808043446749	N/A	-1	0.795666666666667	0.0383567388472741	0.408666666666667	-1	1	FALSE	-0.591333333333333	1	0.45	-0.428803259838688	8.30960760451359
0.45	50 thieves	3 olympians	52	UKQuant	1	12	1	simplified	impersonal	k	No	8.52198170814803	N/A	-1	0.763107692307692	0.0365955157929883	0.473784615384615	-1	1	FALSE	-0.526215384615385	1	0.45	-0.0878958650865069	8.60987757323454
0.45	a terrorist	6 addicts	52	UKQuant	1	95	1	simplified	impersonal	k	No	8.20494516501921	N/A	-1	0.791107438016529	0.0365447942210375	0.417785123966942	-1	1	FALSE	-0.582214876033058	1	0.45	-0.0101548172765416	8.21509998229575
0.45	a hooligan	a billionaire	52	UKQuant	1	33	1	simplified	impersonal	d	Yes	8.57847641983314	N/A	-1	0.778738738738739	0.0397846466297094	0.442522522522522	-1	0	FALSE	-0.557477477477478	0	0.45	0.262466175492898	8.31601024434024
0.55	an olympian	49 orphans	52	UKQuant	1	105	1	simplified	impersonal	k	No	8.05388708361822	N/A	-1	0.706695652173913	0.0430110247137135	0.586608695652174	-1	1	FALSE	-0.413391304347826	1	0.55	-0.160307386624339	8.21419447024256
0.55	48 homeless adults	51 convicts	52	UKQuant	1	65	1	simplified	impersonal	d	Yes	8.09894674894334	N/A	-1	0.739585585585586	0.0404577044914491	0.520828828828829	1	1	TRUE	0.479171171171171	1	0.55	-0.127382726879121	8.22632947582246
0.55	49 orphans	48 members of parliament	52	UKQuant	1	37	1	simplified	impersonal	d	Yes	8.06180227453835	N/A	-1	0.279642276422764	0.040254740841325	0.559284552845528	1	1	TRUE	0.440715447154472	1	0.55	-0.230891826220283	8.29269410075863
0.55	a celebrity	a hooligan	52	UKQuant	1	50	1	simplified	impersonal	d	Yes	7.8336002236611	N/A	-1	0.745981981981982	0.0407502524302704	0.508036036036036	1	1	TRUE	0.491963963963964	1	0.55	-0.41405665533562	8.24765687899672
0.55	50 police officers	an addict	52	UKQuant	1	29	1	simplified	impersonal	d	Yes	8.06808962627824	N/A	-1	0.741654545454545	0.0413150863226189	0.516690909090909	1	1	TRUE	0.483309090909091	1	0.55	-0.278074735583022	8.34616436186127
0.55	5 hooligans	48 nuns	52	UKQuant	1	42	1	simplified	impersonal	k	No	8.69851424787661	N/A	-1	0.748886178861789	0.0398093539973822	0.502227642276423	-1	1	FALSE	-0.497772357723577	1	0.55	0.427677011721826	8.27083723615478
0.55	a billionaire	a convict	52	UKQuant	1	118	1	simplified	impersonal	d	Yes	8.33495163142245	N/A	-1	0.733851239669421	0.0407335550093573	0.532297520661157	1	1	TRUE	0.467702479338843	1	0.55	0.121325808841284	8.21362582258117
0.55	4 nuns	50 thieves	52	UKQuant	1	8	1	simplified	impersonal	k	No	9.11195547005478	N/A	-1	0.74716935483871	0.0380779202522546	0.505661290322581	1	0	TRUE	0.494338709677419	0	0.55	0.385740696338093	8.72621477371669
0.65	51 convicts	a member of parliament	52	UKQuant	1	113	1	simplified	impersonal	k	No	8.89562962713648	N/A	-1	0.333701923076923	0.0460364069752115	0.667403846153846	-1	1	FALSE	-0.332596153846154	1	0.65	0.681838806158975	8.21379082097751
0.65	an assassin	an addict	52	UKQuant	1	58	1	simplified	impersonal	k	No	9.04817432138579	N/A	-1	0.694247933884298	0.04216497339607	0.611504132231405	-1	1	FALSE	-0.388495867768595	1	0.65	0.814376711225577	8.23379761016021
0.65	a judge	an addict	52	UKQuant	1	15	1	simplified	impersonal	k	No	8.33758794211651	N/A	-1	0.67434188034188	0.0409084013061977	0.651316239316239	1	0	TRUE	0.348683760683761	0	0.65	-0.202702642081885	8.5402905841984
0.65	an orphan	a judge	52	UKQuant	1	117	1	simplified	impersonal	d	Yes	7.646353722446	N/A	-1	0.322067226890756	0.0423074577961801	0.644134453781513	1	1	TRUE	0.355865546218487	1	0.65	-0.567300998357561	8.21365472080356
0.65	a mentor	4 members of parliament	52	UKQuant	1	91	1	simplified	impersonal	k	No	8.73311069763871	N/A	-1	0.300128787878788	0.0400859307913905	0.600257575757576	1	0	TRUE	0.399742424242424	0	0.65	0.517450760324206	8.2156599373145
0.65	a convict	a member of parliament	52	UKQuant	1	87	1	simplified	impersonal	k	No	7.69120009752286	N/A	-1	0.655441666666667	0.0443572334730606	0.689116666666667	-1	1	FALSE	-0.310883333333333	1	0.65	-0.525184013983774	8.21638411150664
0.65	49 orphans	4 homeless adults	52	UKQuant	1	77	1	simplified	impersonal	d	Yes	8.47449443688312	N/A	-1	0.335686440677966	0.0428290867043337	0.671372881355932	1	1	TRUE	0.328627118644068	1	0.65	0.255229620321426	8.2192648165617
0.65	8 terrorists	an assassin	52	UKQuant	1	61	1	simplified	impersonal	k	No	8.81581520390635	N/A	-1	0.30415873015873	0.0403428107894389	0.60831746031746	-1	1	FALSE	-0.39168253968254	1	0.65	0.585632476134633	8.23018272777172
0.65	49 orphans	3 olympians	52	UKQuant	1	120	1	simplified	impersonal	d	Yes	7.93987157636188	N/A	-1	0.317038759689923	0.040344858789098	0.634077519379845	1	1	TRUE	0.365922480620155	1	0.65	-0.273701736248315	8.2135733126102
0.75	an astronaut	a soldier	52	UKQuant	1	88	1	simplified	impersonal	d	Yes	8.73262709966039	N/A	-1	0.642338709677419	0.0435264510393098	0.715322580645161	-1	0	FALSE	-0.284677419354839	0	0.75	0.516441847219269	8.21618525244113
0.75	49 astronauts	a nun	52	UKQuant	1	111	1	simplified	impersonal	d	Yes	7.61775957660851	N/A	-1	0.638032520325203	0.0444406897877451	0.723934959349593	1	1	TRUE	0.276065040650407	1	0.75	-0.596113601101334	8.21387317770984
0.75	9 rapists	6 thieves	52	UKQuant	1	82	1	simplified	impersonal	k	No	8.07153089355666	N/A	-1	0.641661016949153	0.0435743080646263	0.716677966101695	-1	1	FALSE	-0.283322033898305	1	0.75	-0.146064029246146	8.21759492280281
0.75	53 adults	52 billionaires	52	UKQuant	1	104	1	simplified	impersonal	d	Yes	8.22174772834662	N/A	-1	0.39234126984127	0.0444140287733825	0.78468253968254	1	1	TRUE	0.21531746031746	1	0.75	0.00748659841085164	8.21426112993577
0.75	9 rapists	49 hooligans	52	UKQuant	1	81	1	simplified	impersonal	k	No	9.28294006439053	N/A	-1	0.611478260869565	0.0461261012903196	0.77704347826087	-1	1	FALSE	-0.22295652173913	1	0.75	1.06505267231356	8.21788739207696
0.75	a terrorist	8 terrorists	52	UKQuant	1	71	1	simplified	impersonal	d	Yes	8.89054824560617	N/A	-1	0.374591666666667	0.0450939458249239	0.749183333333333	1	1	TRUE	0.250816666666667	1	0.75	0.668424095630666	8.2221241499755
0.75	3 olympians	a member of parliament	52	UKQuant	1	79	1	simplified	impersonal	d	Yes	7.78113850984502	N/A	-1	0.603840336134454	0.0459229784557221	0.792319327731092	1	1	TRUE	0.207680672268908	1	0.75	-0.437393375407598	8.21853188525261
0.75	9 judges	an adult	52	UKQuant	1	19	1	simplified	impersonal	d	Yes	8.3986348552921	N/A	-1	0.378640350877193	0.0452008337132103	0.757280701754386	-1	0	FALSE	-0.242719298245614	0	0.75	-0.0674800926532342	8.46611494794534
0.75	9 judges	a mentor	52	UKQuant	1	27	1	simplified	impersonal	d	Yes	8.86460536807578	N/A	-1	0.364567796610169	0.0444476354519237	0.729135593220339	-1	0	FALSE	-0.270864406779661	0	0.75	0.500194192023599	8.36441117605218
0.75	50 addicts	a nun	52	UKQuant	1	26	1	simplified	impersonal	d	Yes	8.46252579007393	N/A	-1	0.390468253968254	0.0428045587808618	0.780936507936508	-1	0	FALSE	-0.219063492063492	0	0.75	0.0880727022734344	8.37445308780049
0.75	6 elderly people	49 celebrities	52	UKQuant	1	100	1	simplified	impersonal	k	No	8.26281693767093	N/A	-1	0.3521875	0.0407216164576251	0.704375	1	0	TRUE	0.295625	0	0.75	0.0482418646933205	8.21457507297761
0.75	an astronaut	an elderly person	52	UKQuant	1	56	1	simplified	impersonal	d	Yes	8.44290058683438	N/A	-1	0.364801652892562	0.044522480729294	0.729603305785124	-1	0	FALSE	-0.270396694214876	0	0.75	0.206275264120983	8.2366253227134
0.75	53 adults	4 nuns	52	UKQuant	1	94	1	simplified	impersonal	d	Yes	8.14351740579748	N/A	-1	0.358806451612903	0.0446694244452403	0.717612903225806	1	1	TRUE	0.282387096774194	1	0.75	-0.0717093673927369	8.21522677319022
0.75	52 billionaires	a soldier	52	UKQuant	1	107	1	simplified	impersonal	d	Yes	8.41027590907016	N/A	-1	0.357354838709677	0.0445312818611874	0.714709677419355	-1	0	FALSE	-0.285290322580645	0	0.75	0.196202563874952	8.21407334519521
0.85	48 homeless adults	a homeless adult	52	UKQuant	1	76	1	simplified	impersonal	d	Yes	8.02322468471667	N/A	-1	0.561824	0.0432660718921533	0.876352	1	1	TRUE	0.123648	1	0.85	-0.196443491656025	8.21966817637269
0.85	9 judges	a judge	52	UKQuant	1	80	1	simplified	impersonal	d	Yes	7.93844555116479	N/A	-1	0.447922413793103	0.0469942536048972	0.895844827586207	-1	0	FALSE	-0.104155172413793	0	0.85	-0.279753731825968	8.21819928299076
0.85	an orphan	6 police officers	52	UKQuant	1	62	1	simplified	impersonal	k	No	7.93880224815448	N/A	-1	0.447363636363636	0.0445568040141617	0.894727272727273	1	0	TRUE	0.105272727272727	0	0.85	-0.290322372203116	8.2291246203576
0.85	8 terrorists	a rapist	52	UKQuant	1	85	1	simplified	impersonal	k	No	8.28601746840476	N/A	-1	0.4004921875	0.0437117132528181	0.800984375	-1	1	FALSE	-0.199015625	1	0.85	0.0691951457013786	8.21682232270338
0.85	an astronaut	9 judges	52	UKQuant	1	63	1	simplified	impersonal	k	No	8.39683183474505	N/A	-1	0.418566666666667	0.0452335601501003	0.837133333333333	1	0	TRUE	0.162866666666667	0	0.85	0.168699432800047	8.22813240194501
0.85	a pedophile	7 assassins	52	UKQuant	1	119	1	simplified	impersonal	k	No	8.03365842788615	N/A	-1	0.575084033613445	0.0445250091378938	0.849831932773109	-1	1	FALSE	-0.150168067226891	1	0.85	-0.179940295982767	8.21359872386892
0.85	3 pedophiles	47 pedophiles	52	UKQuant	1	110	1	simplified	impersonal	d	Yes	8.37976851550457	N/A	-1	0.409050420168067	0.0452032160340512	0.818100840336135	-1	0	FALSE	-0.181899159663865	0	0.85	0.165850013771076	8.21391850173349
0.85	50 elderly people	48 nuns	52	UKQuant	1	40	1	simplified	impersonal	d	Yes	8.22603842948548	N/A	-1	0.405033613445378	0.0445294731988635	0.810067226890756	1	1	TRUE	0.189932773109244	1	0.85	-0.052709141521234	8.27874757100672
0.85	53 adults	5 astronauts	52	UKQuant	1	66	1	simplified	impersonal	d	Yes	7.83042561782033	N/A	-1	0.41000826446281	0.0449888330992756	0.82001652892562	1	1	TRUE	0.17998347107438	1	0.85	-0.395085694964354	8.22551131278468
0.85	a billionaire	49 mentors	52	UKQuant	1	108	1	simplified	impersonal	k	No	8.46083445774685	N/A	-1	0.570431034482759	0.0459989301331309	0.859137931034483	-1	1	FALSE	-0.140862068965517	1	0.85	0.246816078773197	8.21401837897366
0.85	a judge	a homeless adult	52	UKQuant	1	70	1	simplified	impersonal	k	No	8.03300949859667	N/A	-1	0.44911811023622	0.0432273386675225	0.898236220472441	1	0	TRUE	0.101763779527559	0	0.85	-0.189707887351465	8.22271738594813
0.95	47 olympians	a police officer	52	UKQuant	1	54	1	simplified	impersonal	d	Yes	7.77064523412918	N/A	-1	0.531589147286822	0.0447130577715617	0.936821705426357	1	1	TRUE	0.063178294573643	1	0.95	-0.469195823275626	8.2398410574048
0.95	5 mentors	53 judges	52	UKQuant	1	64	1	simplified	impersonal	k	No	7.9550742732627	N/A	-1	0.545096774193548	0.0459323406239106	0.909806451612903	1	0	TRUE	0.090193548387097	0	0.95	-0.272127696322475	8.22720196958517
0.95	3 university students	a police officer	52	UKQuant	1	1	1	simplified	impersonal	d	Yes	9.12434665880921	N/A	-1	0.454074074074074	0.044359092032168	0.908148148148148	-1	0	FALSE	-0.091851851851852	0	0.95	0.106528053927832	9.01781860488138
0.95	a thief	51 assassins	52	UKQuant	1	74	1	simplified	impersonal	k	No	8.06902932877496	N/A	-1	0.505303278688525	0.0454301828344292	0.989393442622951	-1	1	FALSE	-0.010606557377049	1	0.95	-0.151527702149286	8.22055703092424
0.95	an olympian	48 nuns	52	UKQuant	1	39	1	simplified	impersonal	k	No	7.83082299513532	N/A	-1	0.528900900900901	0.0479199927633396	0.942198198198198	-1	1	FALSE	-0.0578018018018021	1	0.95	-0.452277932224547	8.28310092735986
0.95	an olympian	48 members of parliament	52	UKQuant	1	99	1	simplified	impersonal	k	No	8.58969988220299	N/A	-1	0.467284482758621	0.0469432985410618	0.934568965517241	1	0	TRUE	0.065431034482759	0	0.95	0.37503287532452	8.21466700687847
0.95	8 billionaires	5 astronauts	52	UKQuant	1	11	1	simplified	impersonal	k	No	9.21393390748631	N/A	-1	0.533816	0.0449070014895537	0.932368	-1	1	FALSE	-0.067632	1	0.95	0.577714043862127	8.63621986362419
0.95	an adult	48 homeless adults	52	UKQuant	1	4	1	simplified	impersonal	k	No	8.92212482391826	N/A	-1	0.489663793103448	0.0444747511963979	0.979327586206897	1	0	TRUE	0.020672413793103	0	0.95	0.0454543968844607	8.8766704270338
0.95	3 university students	48 members of parliament	52	UKQuant	1	23	1	simplified	impersonal	d	Yes	8.21338173703457	N/A	-1	0.544387596899225	0.0427520183426679	0.91122480620155	1	1	TRUE	0.08877519379845	1	0.95	-0.195378198484113	8.40875993551868
0.95	3 olympians	49 celebrities	52	UKQuant	1	44	1	simplified	impersonal	k	No	7.95014988765202	N/A	-1	0.522681818181818	0.0445842174409639	0.954636363636364	1	0	TRUE	0.0453636363636361	0	0.95	-0.313731503164996	8.26388139081701
0.95	a police officer	50 police officers	52	UKQuant	1	78	1	simplified	impersonal	k	No	7.9391588179568	N/A	-1	0.484132231404959	0.0458915390974096	0.968264462809917	1	0	TRUE	0.031735537190083	0	0.95	-0.279727756258206	8.218886574215
0.95	an elderly person	49 mentors	52	UKQuant	1	84	1	simplified	impersonal	k	No	9.07509322256816	N/A	-1	0.462991666666667	0.0458111611065073	0.925983333333333	1	0	TRUE	0.074016666666667	0	0.95	0.858029735674748	8.21706348689341
0.95	a university student	48 homeless adults	52	UKQuant	1	68	1	simplified	impersonal	k	No	8.09162741160107	N/A	-1	0.478318965517241	0.0464532897767203	0.956637931034483	1	0	TRUE	0.043362068965517	0	0.95	-0.132397245126247	8.22402465672732
0.95	a police officer	6 police officers	52	UKQuant	1	31	1	simplified	impersonal	k	No	8.67334187390617	N/A	-1	0.507469230769231	0.0452322970279228	0.985061538461538	-1	1	FALSE	-0.014938461538462	1	0.95	0.34322259986922	8.33011927403695
0.95	4 homeless adults	a mentor	52	UKQuant	1	90	1	simplified	impersonal	d	Yes	7.91644286012226	N/A	-1	0.489241666666667	0.0477560061377974	0.978483333333333	-1	0	FALSE	-0.021516666666667	0	0.95	-0.29938105231613	8.21582391243839
0.95	50 police officers	48 homeless adults	52	UKQuant	1	22	1	simplified	impersonal	k	No	8.75115798136203	N/A	-1	0.471711711711712	0.0480111727122194	0.943423423423423	1	0	TRUE	0.056576576576577	0	0.95	0.329411121743549	8.42174685961848
0.95	52 billionaires	53 judges	52	UKQuant	1	59	1	simplified	impersonal	k	No	8.89329814421792	N/A	-1	0.48769465648855	0.0435140952389876	0.975389312977099	-1	1	FALSE	-0.024610687022901	1	0.95	0.660783742428547	8.23251440178937
0.95	an assassin	a thief	52	UKQuant	1	96	1	simplified	impersonal	k	No	8.24617155985756	N/A	-1	0.494691056910569	0.0451306703693289	0.989382113821138	1	0	TRUE	0.0106178861788619	0	0.95	0.0311904731090547	8.21498108674851
0.95	49 hooligans	a thief	52	UKQuant	1	67	1	simplified	impersonal	d	Yes	7.52456122628536	N/A	-1	0.472	0.0464282377974315	0.944	-1	0	FALSE	-0.056	0	0.95	-0.700182870978721	8.22474409726408
0.05	3 pedophiles	4 soldiers	59	UKQuant	1	8	1	simplified	impersonal	d	No	7.34794382314869	N/A	-1	0.0447741935483871	0.0182985353859636	0.0895483870967742	-1	1	FALSE	-0.910451612903226	1	0.05	-0.392360339888651	7.74030416303734
0.05	9 rapists	an adult	59	UKQuant	1	46	1	simplified	impersonal	d	No	7.67693714581808	N/A	-1	0.0445042735042735	0.018805345651065	0.089008547008547	-1	1	FALSE	-0.910991452991453	1	0.05	-0.24446022884844	7.92139737466652
0.05	a terrorist	a university student	59	UKQuant	1	113	1	simplified	impersonal	d	No	7.80710329012598	N/A	-1	0.954606837606838	0.0182170055188528	0.0907863247863248	-1	1	FALSE	-0.909213675213675	1	0.05	-0.144642552032753	7.95174584215873
0.05	a soldier	9 rapists	59	UKQuant	1	95	1	simplified	impersonal	k	Yes	7.76131918094799	N/A	-1	0.0289747899159664	0.0154234641788166	0.0579495798319327	1	1	TRUE	0.942050420168067	1	0.05	-0.188834674625475	7.95015385557346
0.15	53 rapists	a judge	59	UKQuant	1	45	1	simplified	impersonal	d	No	8.07153089355666	N/A	-1	0.0957672413793103	0.0277225355253761	0.191534482758621	-1	1	FALSE	-0.808465517241379	1	0.15	0.151754769067103	7.91977612448956
0.15	53 judges	47 pedophiles	59	UKQuant	1	63	1	simplified	impersonal	k	Yes	8.16280135349207	N/A	-1	0.0885793650793651	0.0249551953837642	0.17715873015873	1	1	TRUE	0.82284126984127	1	0.15	0.223340213967564	7.93946113952451
0.15	52 terrorists	an elderly person	59	UKQuant	1	89	1	simplified	impersonal	k	Yes	7.81762544305337	N/A	-1	0.0952649572649573	0.0279022082777751	0.190529914529915	-1	0	FALSE	-0.809470085470085	0	0.15	-0.13158682715519	7.94921227020856
0.15	4 soldiers	6 thieves	59	UKQuant	1	80	1	simplified	impersonal	k	Yes	8.422882511945	N/A	-1	0.918112903225806	0.0237142454055405	0.163774193548387	1	1	TRUE	0.836225806451613	1	0.15	0.475739598644258	7.94714291330074
0.15	53 rapists	50 elderly people	59	UKQuant	1	4	1	simplified	impersonal	d	No	7.78945456608667	N/A	-1	0.906764705882353	0.0267116925197808	0.186470588235294	-1	1	FALSE	-0.813529411764706	1	0.15	0.0965125717400657	7.69294199434661
0.15	3 pedophiles	a police officer	59	UKQuant	1	10	1	simplified	impersonal	d	No	7.48042830607421	N/A	-1	0.078859375	0.0237561803358837	0.15771875	-1	1	FALSE	-0.84228125	1	0.15	-0.280214439762627	7.76064274583683
0.15	a terrorist	50 elderly people	59	UKQuant	1	120	1	simplified	impersonal	d	No	8.42222295382501	N/A	-1	0.940173553719008	0.0213321483207895	0.119652892561984	-1	1	FALSE	-0.880347107438016	1	0.15	0.470156319065918	7.95206663475909
0.15	5 astronauts	8 terrorists	59	UKQuant	1	76	1	simplified	impersonal	k	Yes	7.56527528189893	N/A	-1	0.941433333333333	0.0215314561422028	0.117133333333333	1	1	TRUE	0.882866666666667	1	0.15	-0.380600945780577	7.94587622767951
0.15	9 rapists	49 astronauts	59	UKQuant	1	53	1	simplified	impersonal	d	No	7.71378461659875	N/A	-1	0.941271186440678	0.0216950040610829	0.117457627118644	-1	1	FALSE	-0.882542372881356	1	0.15	-0.216940305085625	7.93072492168438
0.15	a nun	47 pedophiles	59	UKQuant	1	73	1	simplified	impersonal	k	Yes	8.04366335239394	N/A	-1	0.0791803278688525	0.0238901663739461	0.158360655737705	1	1	TRUE	0.841639344262295	1	0.15	0.0989191693848985	7.94474418300905
0.15	an orphan	a thief	59	UKQuant	1	17	1	simplified	impersonal	k	Yes	7.93522953981691	N/A	-1	0.0786016949152542	0.025179908822932	0.157203389830509	1	1	TRUE	0.842796610169491	1	0.15	0.117550825977959	7.81767871383895
0.15	52 terrorists	6 elderly people	59	UKQuant	1	75	1	simplified	impersonal	d	No	8.69818052519705	N/A	-1	0.0885403225806452	0.0265608072777737	0.17708064516129	-1	1	FALSE	-0.82291935483871	1	0.15	0.752662833071205	7.94551769212585
0.25	a nun	an assassin	59	UKQuant	1	52	1	simplified	impersonal	k	Yes	7.5109777520141	N/A	-1	0.855204724409449	0.0313060077667915	0.289590551181102	1	1	TRUE	0.710409448818898	1	0.25	-0.41860707071445	7.92958482272855
0.25	49 hooligans	an orphan	59	UKQuant	1	51	1	simplified	impersonal	k	Yes	8.36380888451688	N/A	-1	0.127956896551724	0.0324927477017151	0.255913793103448	-1	0	FALSE	-0.744086206896552	0	0.25	0.435422971490849	7.92838591302603
0.25	an addict	a pedophile	59	UKQuant	1	23	1	simplified	impersonal	k	Yes	7.79523492900217	N/A	-1	0.118776859504132	0.0298124142649033	0.237553719008264	1	1	TRUE	0.762446280991736	1	0.25	-0.0576502513362493	7.85288518033842
0.25	4 soldiers	7 convicts	59	UKQuant	1	101	1	simplified	impersonal	k	Yes	7.61628356158038	N/A	-1	0.883451612903226	0.0288259611269121	0.233096774193548	1	1	TRUE	0.766903225806452	1	0.25	-0.334566593580745	7.95085015516113
0.25	an assassin	3 olympians	59	UKQuant	1	2	1	simplified	impersonal	d	No	7.57507169950756	N/A	-1	0.854507575757576	0.0290238066178167	0.290984848484849	-1	1	FALSE	-0.709015151515151	1	0.25	-0.090367030086326	7.66543872959389
0.25	a thief	6 police officers	59	UKQuant	1	32	1	simplified	impersonal	d	No	8.09864284375942	N/A	-1	0.872266666666667	0.029726929828418	0.255466666666667	-1	1	FALSE	-0.744533333333333	1	0.25	0.20937125108871	7.88927159267071
0.25	50 thieves	a soldier	59	UKQuant	1	102	1	simplified	impersonal	k	Yes	8.03333401588006	N/A	-1	0.142622950819672	0.030118351942355	0.285245901639344	-1	0	FALSE	-0.714754098360656	0	0.25	0.0823869012723693	7.95094711460769
0.25	9 adults	7 assassins	59	UKQuant	1	25	1	simplified	impersonal	k	Yes	7.40427911803727	N/A	-1	0.117627118644068	0.0283192479113955	0.235254237288136	1	1	TRUE	0.764745762711864	1	0.25	-0.458170551559313	7.86244966959658
0.25	4 nuns	8 terrorists	59	UKQuant	1	85	1	simplified	impersonal	k	Yes	7.63336964967958	N/A	-1	0.898185483870968	0.0264771146667574	0.203629032258065	1	1	TRUE	0.796370967741935	1	0.25	-0.315037105777265	7.94840675545685
0.25	a thief	50 elderly people	59	UKQuant	1	26	1	simplified	impersonal	k	Yes	8.04750951098142	N/A	-1	0.879314049586777	0.0290690220570825	0.241371900826446	-1	0	FALSE	-0.758628099173554	0	0.25	0.180626526538071	7.86688298444335
0.25	a convict	6 elderly people	59	UKQuant	1	28	1	simplified	impersonal	d	No	8.02910705461974	N/A	-1	0.857621212121212	0.0305612462916496	0.284757575757576	-1	1	FALSE	-0.715242424242424	1	0.25	0.153999181984332	7.8751078726354
0.35	7 convicts	49 astronauts	59	UKQuant	1	38	1	simplified	impersonal	d	No	7.82084087990734	N/A	-1	0.8238	0.0335010628204388	0.3524	-1	1	FALSE	-0.6476	1	0.35	-0.0849870222157749	7.90582790212312
0.35	7 assassins	6 police officers	59	UKQuant	1	7	1	simplified	impersonal	d	No	7.4312996751559	N/A	-1	0.843581196581197	0.0332252361984161	0.312837606837607	-1	1	FALSE	-0.687162393162393	1	0.35	-0.298041744196432	7.72934141935233
0.35	a thief	a judge	59	UKQuant	1	64	1	simplified	impersonal	d	No	7.63336964967958	N/A	-1	0.827218487394958	0.0343192268638156	0.345563025210084	-1	1	FALSE	-0.654436974789916	1	0.35	-0.306747120651079	7.94011677033066
0.35	51 assassins	49 mentors	59	UKQuant	1	116	1	simplified	impersonal	d	No	7.69256964806791	N/A	-1	0.802937007874016	0.0342562203879173	0.394125984251968	-1	1	FALSE	-0.605874015748032	1	0.35	-0.259327587332001	7.95189723539991
0.35	an addict	4 soldiers	59	UKQuant	1	12	1	simplified	impersonal	d	No	7.50384074669895	N/A	-1	0.843471074380165	0.0334468627652188	0.313057851239669	-1	1	FALSE	-0.686942148760331	1	0.35	-0.275194163270778	7.77903490996973
0.35	a hooligan	48 homeless adults	59	UKQuant	1	118	1	simplified	impersonal	d	No	7.87625888230323	N/A	-1	0.80657264957265	0.0365519574497115	0.386854700854701	-1	1	FALSE	-0.613145299145299	1	0.35	-0.0757273093695607	7.95198619167279
0.35	53 adults	51 convicts	59	UKQuant	1	92	1	simplified	impersonal	k	Yes	8.66025403425689	N/A	-1	0.188947826086957	0.0384551550533724	0.377895652173913	1	1	TRUE	0.622104347826087	1	0.35	0.710535519064015	7.94971851519287
0.35	an adult	49 hooligans	59	UKQuant	1	21	1	simplified	impersonal	d	No	7.87016594646984	N/A	-1	0.163191304347826	0.0346700435159727	0.326382608695652	1	0	TRUE	0.673617391304348	0	0.35	0.027857452773973	7.84230849369587
0.35	50 police officers	5 hooligans	59	UKQuant	1	87	1	simplified	impersonal	k	Yes	7.34601020991329	N/A	-1	0.196394957983193	0.0343800164409191	0.392789915966387	1	1	TRUE	0.607210084033613	1	0.35	-0.602819543543117	7.94882975345641
0.35	4 soldiers	4 members of parliament	59	UKQuant	1	81	1	simplified	impersonal	d	No	8.8378263640077	N/A	-1	0.188293233082707	0.032702937351698	0.376586466165413	1	0	TRUE	0.623413533834587	0	0.35	0.890404637980316	7.94742172602739
0.35	8 billionaires	an assassin	59	UKQuant	1	74	1	simplified	impersonal	k	Yes	7.64204440287326	N/A	-1	0.845221374045802	0.0335227589720636	0.309557251908397	1	1	TRUE	0.690442748091603	1	0.35	-0.303096259037996	7.94514066191125
0.35	9 adults	a convict	59	UKQuant	1	24	1	simplified	impersonal	k	Yes	7.48549160803075	N/A	-1	0.827	0.0329837558281984	0.346	1	1	TRUE	0.654	1	0.35	-0.372296059064298	7.85778766709505
0.35	7 convicts	50 police officers	59	UKQuant	1	71	1	simplified	impersonal	d	No	7.41336733569524	N/A	-1	0.802486725663717	0.0382070141760427	0.395026548672566	-1	1	FALSE	-0.604973451327434	1	0.35	-0.530521478739199	7.94388881443444
0.45	an addict	9 adults	59	UKQuant	1	22	1	simplified	impersonal	d	No	7.72134861261795	N/A	-1	0.76715	0.0397381842810743	0.4657	-1	1	FALSE	-0.5343	1	0.45	-0.126381191593786	7.84772980421174
0.45	6 thieves	53 rapists	59	UKQuant	1	56	1	simplified	impersonal	k	Yes	8.28248300373056	N/A	-1	0.212129310344828	0.0378484866140438	0.424258620689655	1	1	TRUE	0.575741379310345	1	0.45	0.348662501539185	7.93382050219138
0.45	51 assassins	an olympian	59	UKQuant	1	72	1	simplified	impersonal	k	Yes	8.11252776347864	N/A	-1	0.215521367521368	0.0381844752905006	0.431042735042735	-1	0	FALSE	-0.568957264957265	0	0.45	0.168200511298505	7.94432725218013
0.45	a convict	48 nuns	59	UKQuant	1	115	1	simplified	impersonal	d	No	8.07837810362652	N/A	-1	0.767039682539683	0.0380533668539714	0.465920634920635	-1	1	FALSE	-0.534079365079365	1	0.45	0.126528816740449	7.95184928688607
0.45	an addict	50 elderly people	59	UKQuant	1	106	1	simplified	impersonal	d	No	7.76641689801966	N/A	-1	0.77809243697479	0.0381200858535111	0.44381512605042	-1	1	FALSE	-0.55618487394958	1	0.45	-0.184872768771633	7.95128966679129
0.45	an astronaut	51 convicts	59	UKQuant	1	5	1	simplified	impersonal	k	Yes	7.63143166457691	N/A	-1	0.238299145299145	0.0391428850194391	0.476598290598291	1	1	TRUE	0.523401709401709	1	0.45	-0.074258593547496	7.7056902581244
0.45	4 members of parliament	47 university students	59	UKQuant	1	86	1	simplified	impersonal	d	No	7.90470391387375	N/A	-1	0.2462265625	0.0375852350471018	0.492453125	-1	1	FALSE	-0.507546875	1	0.45	-0.0439196583973569	7.9486235722711
0.45	47 pedophiles	a convict	59	UKQuant	1	36	1	simplified	impersonal	d	No	8.18757739559151	N/A	-1	0.210859375	0.0357816567226448	0.42171875	-1	1	FALSE	-0.57828125	1	0.45	0.286723321132633	7.90085407445888
0.45	51 convicts	47 university students	59	UKQuant	1	66	1	simplified	impersonal	d	No	7.80791662892641	N/A	-1	0.796151785714286	0.0388791876316786	0.407696428571429	-1	1	FALSE	-0.592303571428571	1	0.45	-0.133416497621275	7.94133312654768
0.45	49 hooligans	5 celebrities	59	UKQuant	1	3	1	simplified	impersonal	k	Yes	8.01928379291679	N/A	-1	0.23230081300813	0.0373628240286064	0.46460162601626	-1	0	FALSE	-0.53539837398374	0	0.45	0.339747667468833	7.67953612544796
0.45	a hooligan	9 judges	59	UKQuant	1	1	1	simplified	impersonal	d	No	7.82644313545601	N/A	-1	0.780486956521739	0.0405465553849938	0.439026086956522	-1	1	FALSE	-0.560973913043478	1	0.45	0.175829000326609	7.6506141351294
0.45	an olympian	51 convicts	59	UKQuant	1	15	1	simplified	impersonal	k	Yes	7.43366654016617	N/A	-1	0.247542056074766	0.0427121389784742	0.495084112149533	1	1	TRUE	0.504915887850467	1	0.45	-0.369709632743339	7.80337617290951
0.45	47 pedophiles	51 convicts	59	UKQuant	1	68	1	simplified	impersonal	d	No	8.4767877767812	N/A	-1	0.218151785714286	0.0382387405614202	0.436303571428571	-1	1	FALSE	-0.563696428571429	1	0.45	0.534354700280853	7.94243307650035
0.45	a homeless adult	49 hooligans	59	UKQuant	1	82	1	simplified	impersonal	d	No	7.72797554210556	N/A	-1	0.205782258064516	0.0370114497128228	0.411564516129032	1	0	TRUE	0.588435483870968	0	0.45	-0.219711319901511	7.94768686200707
0.45	a nun	51 assassins	59	UKQuant	1	20	1	simplified	impersonal	k	Yes	7.4713630881871	N/A	-1	0.23018253968254	0.0362585190056443	0.460365079365079	1	1	TRUE	0.539634920634921	1	0.45	-0.365244442671692	7.83660753085879
0.55	9 judges	51 convicts	59	UKQuant	1	41	1	simplified	impersonal	k	Yes	7.64444076155657	N/A	-1	0.291880733944954	0.0425299028023402	0.583761467889908	1	1	TRUE	0.416238532110092	1	0.55	-0.267969794250894	7.91241055580746
0.55	an elderly person	4 members of parliament	59	UKQuant	1	18	1	simplified	impersonal	k	Yes	7.85748078694253	N/A	-1	0.259111111111111	0.0384159167659428	0.518222222222222	1	1	TRUE	0.481777777777778	1	0.55	0.0331725850736868	7.82430820186884
0.65	9 rapists	51 convicts	59	UKQuant	1	96	1	simplified	impersonal	d	No	8.20849175174038	N/A	-1	0.661963963963964	0.0454512932795977	0.676072072072072	-1	1	FALSE	-0.323927927927928	1	0.65	0.258206780771349	7.95028497096903
0.65	6 addicts	50 police officers	59	UKQuant	1	110	1	simplified	impersonal	d	No	8.88100262425557	N/A	-1	0.655513043478261	0.0437676265354057	0.688973913043478	-1	1	FALSE	-0.311026086956522	1	0.65	0.929432833004174	7.95156979125139
0.65	9 adults	50 addicts	59	UKQuant	1	60	1	simplified	impersonal	d	No	7.94342776787637	N/A	-1	0.311404761904762	0.0434546892260785	0.622809523809524	1	0	TRUE	0.377190476190476	0	0.65	0.00614350898008542	7.93728425889629
0.65	6 elderly people	a celebrity	59	UKQuant	1	111	1	simplified	impersonal	k	Yes	8.08271113423758	N/A	-1	0.685534482758621	0.0434767891447086	0.628931034482759	1	1	TRUE	0.371068965517241	1	0.65	0.131079684226338	7.95163145001124
0.65	a member of parliament	5 orphans	59	UKQuant	1	42	1	simplified	impersonal	d	No	7.69893619981345	N/A	-1	0.680150442477876	0.0436552232519905	0.639699115044248	-1	1	FALSE	-0.360300884955752	1	0.65	-0.215456913276092	7.91439311308954
0.65	5 hooligans	5 celebrities	59	UKQuant	1	83	1	simplified	impersonal	d	No	8.00803284696931	N/A	-1	0.689439393939394	0.0403698753313939	0.621121212121212	-1	1	FALSE	-0.378878787878788	1	0.65	0.0600938548368788	7.94793899213243
0.65	50 police officers	5 celebrities	59	UKQuant	1	9	1	simplified	impersonal	k	Yes	7.85709386490249	N/A	-1	0.33027731092437	0.0430900611607985	0.660554621848739	1	1	TRUE	0.339445378151261	1	0.65	0.106364719398046	7.75072914550445
0.65	3 olympians	49 orphans	59	UKQuant	1	108	1	simplified	impersonal	d	No	7.47647238116391	N/A	-1	0.317038759689923	0.040344858789098	0.634077519379845	-1	1	FALSE	-0.365922480620155	1	0.65	-0.474964386702815	7.95143676786672
0.75	a celebrity	5 mentors	59	UKQuant	1	14	1	simplified	impersonal	d	No	7.84893372636407	N/A	-1	0.625577981651376	0.0457921970073082	0.748844036697248	-1	1	FALSE	-0.251155963302752	1	0.75	0.0532667971024336	7.79566692926164
0.75	49 hooligans	51 convicts	59	UKQuant	1	109	1	simplified	impersonal	k	Yes	7.78986855905471	N/A	-1	0.398818181818182	0.0467502115127982	0.797636363636364	-1	0	FALSE	-0.202363636363636	0	0.75	-0.161636392837746	7.95150495189245
0.75	48 soldiers	53 adults	59	UKQuant	1	44	1	simplified	impersonal	d	No	7.91059061225648	N/A	-1	0.605605042016807	0.0428625202817912	0.788789915966386	1	0	TRUE	0.211210084033614	0	0.75	-0.00748063165458746	7.91807124391106
0.75	47 olympians	a nun	59	UKQuant	1	119	1	simplified	impersonal	k	Yes	7.33823815006559	N/A	-1	0.63669918699187	0.0420775420455594	0.72660162601626	1	1	TRUE	0.27339837398374	1	0.75	-0.6137892744587	7.95202742452429
0.75	50 addicts	a homeless adult	59	UKQuant	1	114	1	simplified	impersonal	k	Yes	8.08733292647335	N/A	-1	0.39269465648855	0.0412397025529902	0.785389312977099	-1	0	FALSE	-0.214610687022901	0	0.75	0.135534061472297	7.95179886500105
0.75	47 university students	3 olympians	59	UKQuant	1	65	1	simplified	impersonal	k	Yes	7.58832367733522	N/A	-1	0.370669291338583	0.0424777260728258	0.741338582677165	1	1	TRUE	0.258661417322835	1	0.75	-0.352416562799664	7.94074024013489
0.75	an olympian	6 police officers	59	UKQuant	1	37	1	simplified	impersonal	d	No	8.06557942728209	N/A	-1	0.601660869565217	0.0449635485688792	0.796678260869565	-1	1	FALSE	-0.203321739130435	1	0.75	0.162175909398109	7.90340351788398
0.75	52 billionaires	an orphan	59	UKQuant	1	99	1	simplified	impersonal	k	Yes	8.18674278711352	N/A	-1	0.387032520325203	0.0421243519030825	0.774065040650406	-1	0	FALSE	-0.225934959349594	0	0.75	0.236101813482952	7.95064097363057
0.75	50 elderly people	a nun	59	UKQuant	1	107	1	simplified	impersonal	k	Yes	7.87549929244521	N/A	-1	0.633384	0.0446441669834442	0.733232	1	1	TRUE	0.266768	1	0.75	-0.0758657741980455	7.95136506664325
0.75	a celebrity	9 adults	59	UKQuant	1	16	1	simplified	impersonal	d	No	7.58069975222456	N/A	-1	0.639286956521739	0.0457405730846594	0.721426086956522	-1	1	FALSE	-0.278573913043478	1	0.75	-0.230007498759283	7.81070725098385
0.75	5 orphans	4 nuns	59	UKQuant	1	62	1	simplified	impersonal	k	Yes	7.66199755890189	N/A	-1	0.373208	0.0427620547837604	0.746416	1	1	TRUE	0.253584	1	0.75	-0.276774129824734	7.93877168872663
0.75	a soldier	an astronaut	59	UKQuant	1	31	1	simplified	impersonal	d	No	8.30671904320269	N/A	-1	0.642338709677419	0.0435264510393098	0.715322580645161	1	0	TRUE	0.284677419354839	0	0.75	0.420725873726391	7.8859931694763
0.75	a member of parliament	an astronaut	59	UKQuant	1	57	1	simplified	impersonal	d	No	8.00570067866254	N/A	-1	0.352469565217391	0.0449823352042078	0.704939130434783	-1	1	FALSE	-0.295060869565217	1	0.75	0.0709478525223899	7.93475282614015
0.85	a soldier	an adult	59	UKQuant	1	19	1	simplified	impersonal	k	Yes	8.1656479252975	N/A	-1	0.589025210084034	0.0446133411862808	0.821949579831933	1	1	TRUE	0.178050420168067	1	0.85	0.335035435153444	7.83061249014406
0.85	47 university students	a university student	59	UKQuant	1	33	1	simplified	impersonal	k	Yes	8.4252971767117	N/A	-1	0.565598290598291	0.0464141636806269	0.868803418803419	1	1	TRUE	0.131196581196581	1	0.85	0.532907979059656	7.89238919765204
0.85	a police officer	an elderly person	59	UKQuant	1	54	1	simplified	impersonal	k	Yes	7.87587915949631	N/A	-1	0.421128	0.0441136898664534	0.842256	-1	0	FALSE	-0.157744	0	0.85	-0.0559299352716387	7.93180909476795
0.85	49 astronauts	a soldier	59	UKQuant	1	91	1	simplified	impersonal	k	Yes	8.5539107743514	N/A	-1	0.441958333333333	0.0449744540930227	0.883916666666667	-1	0	FALSE	-0.116083333333333	0	0.85	0.604352594550296	7.94955817980111
0.85	4 members of parliament	an addict	59	UKQuant	1	98	1	simplified	impersonal	k	Yes	7.88645727097769	N/A	-1	0.578690476190476	0.0443188119179482	0.842619047619048	1	1	TRUE	0.157380952380952	1	0.85	-0.0640709512617983	7.95052822223949
0.85	5 orphans	48 homeless adults	59	UKQuant	1	49	1	simplified	impersonal	d	No	8.30696586536857	N/A	-1	0.439175	0.0469510252686113	0.87835	1	0	TRUE	0.12165	0	0.85	0.381166495226936	7.92579937014164
0.85	52 billionaires	9 adults	59	UKQuant	1	100	1	simplified	impersonal	k	Yes	7.53047999524554	N/A	-1	0.420196850393701	0.0439839573459647	0.840393700787402	-1	0	FALSE	-0.159606299212598	0	0.85	-0.420268198922964	7.9507481941685
0.85	6 police officers	a judge	59	UKQuant	1	78	1	simplified	impersonal	k	Yes	7.72134861261795	N/A	-1	0.589165289256198	0.0448257773008739	0.821669421487603	1	1	TRUE	0.178330578512397	1	0.85	-0.22519278659655	7.9465413992145
0.85	7 convicts	an assassin	59	UKQuant	1	13	1	simplified	impersonal	d	No	8.22737550683403	N/A	-1	0.561661290322581	0.0460506406510961	0.876677419354839	1	0	TRUE	0.123322580645161	0	0.85	0.439815494047651	7.78756001278638
0.85	53 adults	a police officer	59	UKQuant	1	43	1	simplified	impersonal	k	Yes	8.22550309756692	N/A	-1	0.557692307692308	0.0414436432246178	0.884615384615385	1	1	TRUE	0.115384615384615	1	0.85	0.309224678617863	7.91627841894906
0.85	an olympian	50 police officers	59	UKQuant	1	6	1	simplified	impersonal	d	No	7.87435882472988	N/A	-1	0.573271028037383	0.0480184685832058	0.853457943925234	-1	1	FALSE	-0.146542056074766	1	0.85	0.156545650099513	7.71781317463037
0.85	4 members of parliament	48 members of parliament	59	UKQuant	1	47	1	simplified	impersonal	d	No	7.83755436088108	N/A	-1	0.413348484848485	0.0434673422402387	0.82669696969697	-1	1	FALSE	-0.17330303030303	1	0.85	-0.0853847359268327	7.92293909680792
0.85	47 pedophiles	3 pedophiles	59	UKQuant	1	29	1	simplified	impersonal	k	Yes	7.94200680848986	N/A	-1	0.409050420168067	0.0452032160340512	0.818100840336135	1	1	TRUE	0.181899159663865	1	0.85	0.0630865504828293	7.87892025800703
0.85	5 orphans	8 billionaires	59	UKQuant	1	61	1	simplified	impersonal	k	Yes	8.20028826028755	N/A	-1	0.565875968992248	0.0445929092756239	0.868248062015504	1	1	TRUE	0.131751937984496	1	0.85	0.262241586917494	7.93804667337006
0.85	a police officer	a billionaire	59	UKQuant	1	11	1	simplified	impersonal	k	Yes	7.91935619066062	N/A	-1	0.420314049586777	0.0461161267886616	0.840628099173554	1	1	TRUE	0.159371900826446	1	0.85	0.149286141529948	7.77007004913067
0.85	an assassin	5 hooligans	59	UKQuant	1	35	1	simplified	impersonal	k	Yes	7.99799931797973	N/A	-1	0.585007633587786	0.0425791485903695	0.829984732824427	-1	0	FALSE	-0.170015267175573	0	0.85	0.099826197172046	7.89817312080768
0.85	47 university students	an adult	59	UKQuant	1	67	1	simplified	impersonal	k	Yes	7.5137092478397	N/A	-1	0.575905982905983	0.0461054969435739	0.848188034188034	1	1	TRUE	0.151811965811966	1	0.85	-0.428187681952494	7.9418969297922
0.85	49 astronauts	8 billionaires	59	UKQuant	1	39	1	simplified	impersonal	k	Yes	7.86978390253015	N/A	-1	0.571563492063492	0.0446963012918327	0.856873015873016	1	1	TRUE	0.143126984126984	1	0.85	-0.0383494592400044	7.90813336177015
0.85	an astronaut	9 adults	59	UKQuant	1	105	1	simplified	impersonal	d	No	8.69667739339003	N/A	-1	0.580661417322835	0.0443231907515669	0.838677165354331	-1	1	FALSE	-0.161322834645669	1	0.85	0.745467015868878	7.95121037752115
0.95	49 hooligans	6 thieves	59	UKQuant	1	48	1	simplified	impersonal	k	Yes	7.85010354517558	N/A	-1	0.46125641025641	0.047772465915864	0.92251282051282	-1	0	FALSE	-0.07748717948718	0	0.95	-0.074301646868622	7.9244051920442
0.95	a homeless adult	48 nuns	59	UKQuant	1	117	1	simplified	impersonal	d	No	7.76174498465891	N/A	-1	0.546274193548387	0.0440555881706671	0.907451612903226	-1	1	FALSE	-0.092548387096774	1	0.95	-0.190197847211222	7.95194283187014
0.95	9 adults	an adult	59	UKQuant	1	50	1	simplified	impersonal	k	Yes	7.99361999482774	N/A	-1	0.517355371900826	0.0447238682294528	0.965289256198347	1	1	TRUE	0.034710743801653	1	0.95	0.066494835938383	7.92712515888936
0.95	a mentor	4 homeless adults	59	UKQuant	1	70	1	simplified	impersonal	k	Yes	7.66996199547358	N/A	-1	0.489241666666667	0.0477560061377974	0.978483333333333	1	1	TRUE	0.021516666666667	1	0.95	-0.27346576488782	7.9434277603614
0.95	49 celebrities	a homeless adult	59	UKQuant	1	79	1	simplified	impersonal	k	Yes	7.3356339819272	N/A	-1	0.497121212121212	0.0441033328140401	0.994242424242424	-1	0	FALSE	-0.00575757575757596	0	0.95	-0.61121573640002	7.94684971832722
0.95	5 orphans	an adult	59	UKQuant	1	59	1	simplified	impersonal	k	Yes	7.63819824428578	N/A	-1	0.533545454545455	0.0453813623274544	0.932909090909091	1	1	TRUE	0.067090909090909	1	0.95	-0.298284271827337	7.93648251611312
0.95	3 university students	an olympian	59	UKQuant	1	27	1	simplified	impersonal	d	No	7.63578686139558	N/A	-1	0.544266666666667	0.0467381239461725	0.911466666666667	1	0	TRUE	0.088533333333333	0	0.95	-0.235311968175294	7.87109882957088
0.95	a billionaire	49 celebrities	59	UKQuant	1	112	1	simplified	impersonal	d	No	7.93951526066241	N/A	-1	0.475547008547009	0.0465811035687783	0.951094017094017	1	0	TRUE	0.048905982905983	0	0.95	-0.0121748235291879	7.95169008419159
0.95	9 adults	53 adults	59	UKQuant	1	103	1	simplified	impersonal	d	No	7.56371966841437	N/A	-1	0.527272	0.0433243004676476	0.945456	-1	1	FALSE	-0.054544	1	0.95	-0.387319649437283	7.95103931785165
0.95	5 mentors	53 judges	59	UKQuant	1	84	1	simplified	impersonal	d	No	7.78696700261487	N/A	-1	0.545096774193548	0.0459323406239106	0.909806451612903	1	0	TRUE	0.090193548387097	0	0.95	-0.16121175177159	7.94817875438646
0.95	50 police officers	5 orphans	59	UKQuant	1	104	1	simplified	impersonal	k	Yes	7.72179177681754	N/A	-1	0.509139130434783	0.0455197265464341	0.981721739130435	-1	0	FALSE	-0.018278260869565	0	0.95	-0.229335221383969	7.9511269982015
0.95	an astronaut	a police officer	59	UKQuant	1	34	1	simplified	impersonal	k	Yes	8.30745932701195	N/A	-1	0.527628787878788	0.0444812887335583	0.944742424242424	-1	0	FALSE	-0.0552575757575759	0	0.95	0.412105453891455	7.89535387312049
0.95	49 celebrities	4 nuns	59	UKQuant	1	30	1	simplified	impersonal	d	No	7.97004930497614	N/A	-1	0.498094488188976	0.0444147908590032	0.996188976377953	1	0	TRUE	0.00381102362204699	0	0.95	0.0875036725373954	7.88254563243874
0.95	a hooligan	a convict	59	UKQuant	1	77	1	simplified	impersonal	k	Yes	7.77611547709874	N/A	-1	0.5065546875	0.0431782001908117	0.986890625	-1	0	FALSE	-0.013109375	0	0.95	-0.170101698701796	7.94621717580054
0.95	48 nuns	8 billionaires	59	UKQuant	1	69	1	simplified	impersonal	k	Yes	7.15929190479756	N/A	-1	0.49690243902439	0.046058854380966	0.99380487804878	-1	0	FALSE	-0.00619512195121996	0	0.95	-0.783651018525148	7.94294292332271
0.95	9 judges	5 celebrities	59	UKQuant	1	40	1	simplified	impersonal	k	Yes	7.77611547709874	N/A	-1	0.460852459016393	0.0457498786438496	0.921704918032787	1	1	TRUE	0.078295081967213	1	0.95	-0.134210253396749	7.91032573049549
0.95	a soldier	53 adults	59	UKQuant	1	94	1	simplified	impersonal	d	No	8.12533508671429	N/A	-1	0.452270491803279	0.0463558141548218	0.904540983606557	1	0	TRUE	0.095459016393443	0	0.95	0.175319109979409	7.95001597673488
0.95	6 police officers	4 homeless adults	59	UKQuant	1	55	1	simplified	impersonal	k	Yes	8.40626163070896	N/A	-1	0.451764705882353	0.0436857009219215	0.903529411764706	1	1	TRUE	0.096470588235294	1	0.95	0.473421545368549	7.93284008534041
0.95	a nun	a homeless adult	59	UKQuant	1	88	1	simplified	impersonal	k	Yes	8.37124213593193	N/A	-1	0.4764	0.0436090183357527	0.9528	1	1	TRUE	0.0472	1	0.95	0.422216315204079	7.94902582072785
0.95	a judge	3 olympians	59	UKQuant	1	97	1	simplified	impersonal	d	No	8.65172408437384	N/A	-1	0.5163828125	0.0448062257824173	0.967234375	-1	1	FALSE	-0.032765625	1	0.95	0.701314429681535	7.95040965469231
0.95	a thief	49 hooligans	59	UKQuant	1	93	1	simplified	impersonal	d	No	8.41272116981953	N/A	-1	0.472	0.0464282377974315	0.944	1	0	TRUE	0.056	0	0.95	0.462850184250981	7.94987098556855
0.95	a soldier	an orphan	59	UKQuant	1	90	1	simplified	impersonal	k	Yes	7.24351297466548	N/A	-1	0.521491666666667	0.0455534184598458	0.957016666666667	1	1	TRUE	0.042983333333333	1	0.95	-0.705876599019581	7.94938957368506
0.05	9 rapists	4 soldiers	38	UKQuant	1	18	1	simplified	impersonal	k	No	8.09681747057232	N/A	-1	0.971983606557377	0.0144606249532465	0.0560327868852459	-1	1	FALSE	-0.943967213114754	1	0.05	-0.156516580877909	8.25333405145023
0.05	8 terrorists	an orphan	38	UKQuant	1	5	1	simplified	impersonal	k	No	8.45998771764546	N/A	-1	0.0375702479338843	0.0173362434615969	0.0751404958677686	-1	1	FALSE	-0.924859504132231	1	0.05	0.221361551004438	8.23862616664102
0.05	an olympian	a pedophile	38	UKQuant	1	10	1	simplified	impersonal	d	Yes	8.23562571996431	N/A	-1	0.0403305084745763	0.0176410722400788	0.0806610169491525	1	1	TRUE	0.919338983050847	1	0.05	-0.017476719022115	8.25310243898643
0.05	a mentor	a pedophile	38	UKQuant	1	1	1	simplified	impersonal	d	Yes	7.86095636487639	N/A	-1	0.961904761904762	0.015983851245348	0.0761904761904761	1	1	TRUE	0.923809523809524	1	0.05	0.0143859172694807	7.84657044760691
0.15	52 terrorists	an elderly person	38	UKQuant	1	70	1	simplified	impersonal	k	No	8.29279885820037	N/A	-1	0.0952649572649573	0.0279022082777751	0.190529914529915	-1	1	FALSE	-0.809470085470085	1	0.15	0.039464503526089	8.25333435467429
0.15	53 rapists	50 elderly people	38	UKQuant	1	27	1	simplified	impersonal	k	No	8.36846113761584	N/A	-1	0.906764705882353	0.0267116925197808	0.186470588235294	-1	1	FALSE	-0.813529411764706	1	0.15	0.115126783114436	8.2533343545014
0.15	48 soldiers	a hooligan	38	UKQuant	1	34	1	simplified	impersonal	d	Yes	7.86211221166275	N/A	-1	0.902620689655172	0.0267936305090119	0.194758620689655	1	1	TRUE	0.805241379310345	1	0.15	-0.391222143011018	8.25333435467377
0.15	47 pedophiles	50 police officers	38	UKQuant	1	86	1	simplified	impersonal	k	No	7.5207764150628	N/A	-1	0.0681517857142857	0.0236587471088102	0.136303571428571	-1	1	FALSE	-0.863696428571429	1	0.15	-0.732557939611488	8.25333435467429
0.15	49 astronauts	a pedophile	38	UKQuant	1	111	1	simplified	impersonal	d	Yes	7.60439634879634	N/A	-1	0.946637096774194	0.0202716810579577	0.106725806451613	1	1	TRUE	0.893274193548387	1	0.15	-0.648938005877947	8.25333435467429
0.15	5 astronauts	a rapist	38	UKQuant	1	95	1	simplified	impersonal	d	Yes	7.47647238116391	N/A	-1	0.94428	0.0204216219395679	0.11144	1	1	TRUE	0.88856	1	0.15	-0.77686197351038	8.25333435467429
0.15	a billionaire	53 rapists	38	UKQuant	1	40	1	simplified	impersonal	d	Yes	8.94089106778546	N/A	-1	0.0995596330275229	0.0280341415231129	0.199119266055046	1	1	TRUE	0.800880733944954	1	0.15	0.68755671311118	8.25333435467428
0.15	a judge	a rapist	38	UKQuant	1	96	1	simplified	impersonal	d	Yes	7.90100705199242	N/A	-1	0.929468253968254	0.0232022798662393	0.141063492063492	1	1	TRUE	0.858936507936508	1	0.15	-0.352327302681865	8.25333435467429
0.15	a judge	9 rapists	38	UKQuant	1	33	1	simplified	impersonal	d	Yes	8.55986946569667	N/A	-1	0.0555762711864407	0.0206170165828508	0.111152542372881	1	1	TRUE	0.888847457627119	1	0.15	0.306535111023576	8.2533343546731
0.15	a homeless adult	3 pedophiles	38	UKQuant	1	77	1	simplified	impersonal	d	Yes	8.34045601291618	N/A	-1	0.095244094488189	0.0265602610105583	0.190488188976378	1	1	TRUE	0.809511811023622	1	0.15	0.0871216582418981	8.25333435467429
0.15	49 orphans	an assassin	38	UKQuant	1	80	1	simplified	impersonal	d	Yes	7.37525577800975	N/A	-1	0.93688	0.0214380313739202	0.12624	1	1	TRUE	0.87376	1	0.15	-0.878078576664531	8.25333435467429
0.15	47 pedophiles	6 elderly people	38	UKQuant	1	36	1	simplified	impersonal	k	No	7.98139158158007	N/A	-1	0.0505573770491803	0.0205802681922734	0.101114754098361	-1	1	FALSE	-0.898885245901639	1	0.15	-0.271942773094118	8.25333435467419
0.15	an assassin	49 orphans	38	UKQuant	1	89	1	simplified	impersonal	k	No	7.45760928971561	N/A	-1	0.93688	0.0214380313739202	0.12624	-1	1	FALSE	-0.87376	1	0.15	-0.795725064958679	8.25333435467429
0.15	53 rapists	a judge	38	UKQuant	1	50	1	simplified	impersonal	k	No	8.37355374121463	N/A	-1	0.0957672413793103	0.0277225355253761	0.191534482758621	-1	1	FALSE	-0.808465517241379	1	0.15	0.120219386540342	8.25333435467429
0.15	an assassin	6 elderly people	38	UKQuant	1	119	1	simplified	impersonal	k	No	7.36518012602101	N/A	-1	0.93021875	0.0227071408825409	0.1395625	-1	1	FALSE	-0.8604375	1	0.15	-0.888154228653272	8.25333435467429
0.15	a rapist	a judge	38	UKQuant	1	55	1	simplified	impersonal	k	No	8.14351740579748	N/A	-1	0.929468253968254	0.0232022798662393	0.141063492063492	-1	1	FALSE	-0.858936507936508	1	0.15	-0.109816948876805	8.25333435467429
0.15	9 adults	9 rapists	38	UKQuant	1	52	1	simplified	impersonal	d	Yes	8.39840965542627	N/A	-1	0.940479338842975	0.0206238066089988	0.11904132231405	1	1	TRUE	0.88095867768595	1	0.15	0.145075300751985	8.25333435467429
0.15	9 judges	9 rapists	38	UKQuant	1	15	1	simplified	impersonal	d	Yes	7.66481578528574	N/A	-1	0.90419298245614	0.0284194449572541	0.191614035087719	1	1	TRUE	0.808385964912281	1	0.15	-0.588514912589619	8.25333069787535
0.15	6 elderly people	47 pedophiles	38	UKQuant	1	46	1	simplified	impersonal	d	Yes	8.61268517287546	N/A	-1	0.0505573770491803	0.0205802681922734	0.101114754098361	1	1	TRUE	0.898885245901639	1	0.15	0.359350818201174	8.25333435467429
0.25	a terrorist	a celebrity	38	UKQuant	1	41	1	simplified	impersonal	k	No	7.76259604854007	N/A	-1	0.870189189189189	0.0326579494983665	0.259621621621622	-1	1	FALSE	-0.740378378378378	1	0.25	-0.490738306134214	8.25333435467428
0.25	47 olympians	an assassin	38	UKQuant	1	56	1	simplified	impersonal	d	Yes	8.20903626577507	N/A	-1	0.896184	0.0272235792515839	0.207632	1	1	TRUE	0.792368	1	0.25	-0.0442980888992146	8.25333435467429
0.25	an olympian	52 terrorists	38	UKQuant	1	115	1	simplified	impersonal	d	Yes	8.56902634005625	N/A	-1	0.11909649122807	0.0301400711709098	0.23819298245614	1	1	TRUE	0.76180701754386	1	0.25	0.315691985381969	8.25333435467429
0.25	a thief	an astronaut	38	UKQuant	1	26	1	simplified	impersonal	k	No	8.48838210956212	N/A	-1	0.118243902439024	0.0300237878035691	0.236487804878049	-1	1	FALSE	-0.763512195121951	1	0.25	0.23504775528429	8.25333435427783
0.25	52 terrorists	a police officer	38	UKQuant	1	114	1	simplified	impersonal	k	No	8.3150770072941	N/A	-1	0.113612403100775	0.0274425132364399	0.22722480620155	-1	1	FALSE	-0.77277519379845	1	0.25	0.0617426526198184	8.25333435467429
0.25	53 adults	7 assassins	38	UKQuant	1	22	1	simplified	impersonal	d	Yes	8.40155784781731	N/A	-1	0.863974358974359	0.0331474279122004	0.272051282051282	1	1	TRUE	0.727948717948718	1	0.25	0.148223504107316	8.25333434371
0.25	51 assassins	49 orphans	38	UKQuant	1	101	1	simplified	impersonal	k	No	7.60837447438078	N/A	-1	0.86475	0.0303022813806634	0.2705	-1	1	FALSE	-0.7295	1	0.25	-0.644959880293502	8.25333435467429
0.25	a thief	6 police officers	38	UKQuant	1	85	1	simplified	impersonal	k	No	7.97212112892166	N/A	-1	0.872266666666667	0.029726929828418	0.255466666666667	-1	1	FALSE	-0.744533333333333	1	0.25	-0.28121322575263	8.25333435467429
0.25	49 hooligans	5 mentors	38	UKQuant	1	117	1	simplified	impersonal	d	Yes	7.86403565907245	N/A	-1	0.14969298245614	0.033387838934624	0.299385964912281	-1	0	FALSE	-0.700614035087719	0	0.25	-0.389298695601835	8.25333435467429
0.25	5 orphans	49 hooligans	38	UKQuant	1	82	1	simplified	impersonal	k	No	8.07246736935477	N/A	-1	0.146428571428571	0.0326689667129954	0.292857142857143	1	0	TRUE	0.707142857142857	0	0.25	-0.180866985319515	8.25333435467429
0.35	9 judges	6 thieves	38	UKQuant	1	88	1	simplified	impersonal	d	Yes	8.75746914147075	N/A	-1	0.183310344827586	0.0356582126753287	0.366620689655172	1	1	TRUE	0.633379310344828	1	0.35	0.504134786796463	8.25333435467429
0.35	a homeless adult	a thief	38	UKQuant	1	105	1	simplified	impersonal	d	Yes	8.53640741034004	N/A	-1	0.811452380952381	0.0373776083928164	0.377095238095238	1	1	TRUE	0.622904761904762	1	0.35	0.283073055665756	8.25333435467429
0.35	7 convicts	a mentor	38	UKQuant	1	58	1	simplified	impersonal	k	No	8.88972179927814	N/A	-1	0.175893442622951	0.0356243579726003	0.351786885245902	-1	1	FALSE	-0.648213114754098	1	0.35	0.636387444603852	8.25333435467429
0.35	7 convicts	an elderly person	38	UKQuant	1	66	1	simplified	impersonal	d	Yes	8.99243308745722	N/A	-1	0.152529914529915	0.0336102324886087	0.305059829059829	-1	0	FALSE	-0.694940170940171	0	0.35	0.739098732782933	8.25333435467429
0.35	49 hooligans	48 homeless adults	38	UKQuant	1	106	1	simplified	impersonal	d	Yes	8.84937050375457	N/A	-1	0.801313043478261	0.0369562775043196	0.397373913043478	-1	0	FALSE	-0.602626086956522	0	0.35	0.596036149080284	8.25333435467429
0.35	49 astronauts	5 hooligans	38	UKQuant	1	68	1	simplified	impersonal	d	Yes	7.54644627374602	N/A	-1	0.808825396825397	0.0356051085944641	0.382349206349206	1	1	TRUE	0.617650793650794	1	0.35	-0.706888080928262	8.25333435467429
0.35	50 thieves	47 olympians	38	UKQuant	1	63	1	simplified	impersonal	k	No	7.8935720735049	N/A	-1	0.806254098360656	0.0351386173226178	0.387491803278688	-1	1	FALSE	-0.612508196721312	1	0.35	-0.359762281169383	8.25333435467429
0.35	6 addicts	9 rapists	38	UKQuant	1	107	1	simplified	impersonal	d	Yes	7.62364194651157	N/A	-1	0.804275	0.0356215671865599	0.39145	1	1	TRUE	0.60855	1	0.35	-0.629692408162714	8.25333435467429
0.35	47 olympians	50 thieves	38	UKQuant	1	13	1	simplified	impersonal	d	Yes	8.93458687038968	N/A	-1	0.806254098360656	0.0351386173226178	0.387491803278688	1	1	TRUE	0.612508196721312	1	0.35	0.68127174630942	8.25331512408026
0.45	a university student	51 convicts	38	UKQuant	1	16	1	simplified	impersonal	k	No	8.71686338654481	N/A	-1	0.206252252252252	0.0393187377349242	0.412504504504504	1	0	TRUE	0.587495495495496	0	0.45	0.463530626483417	8.25333276006139
0.45	50 elderly people	an addict	38	UKQuant	1	51	1	simplified	impersonal	d	Yes	7.91899248816525	N/A	-1	0.77809243697479	0.0381200858535111	0.44381512605042	1	1	TRUE	0.55618487394958	1	0.45	-0.33434186650904	8.25333435467429
0.45	51 assassins	3 olympians	38	UKQuant	1	67	1	simplified	impersonal	k	No	8.45105338891169	N/A	-1	0.761419847328244	0.0357325263195461	0.477160305343511	-1	1	FALSE	-0.522839694656489	1	0.45	0.197719034237407	8.25333435467429
0.45	49 hooligans	8 billionaires	38	UKQuant	1	61	1	simplified	impersonal	d	Yes	8.2776661608515	N/A	-1	0.203024390243902	0.0371840217424318	0.406048780487805	-1	0	FALSE	-0.593951219512195	0	0.45	0.0243318061772175	8.25333435467429
0.45	50 addicts	a rapist	38	UKQuant	1	3	1	simplified	impersonal	d	Yes	7.86326672400957	N/A	-1	0.791515384615385	0.0358812548093739	0.416969230769231	1	1	TRUE	0.583030769230769	1	0.45	-0.312719327320082	8.17598605132966
0.45	an addict	49 astronauts	38	UKQuant	1	39	1	simplified	impersonal	k	No	8.3039999709552	N/A	-1	0.778547008547009	0.0371798043240456	0.442905982905983	-1	1	FALSE	-0.557094017094017	1	0.45	0.05066561628092	8.25333435467428
0.45	50 thieves	48 homeless adults	38	UKQuant	1	4	1	simplified	impersonal	k	No	8.21959545417708	N/A	-1	0.776291666666667	0.0367427387151902	0.447416666666667	-1	1	FALSE	-0.552583333333333	1	0.45	-9.7826663623124e-06	8.21960523684344
0.45	a member of parliament	an assassin	38	UKQuant	1	76	1	simplified	impersonal	d	Yes	7.81802793853073	N/A	-1	0.772347826086957	0.0395478072389962	0.455304347826087	1	1	TRUE	0.544695652173913	1	0.45	-0.435306416143556	8.25333435467429
0.45	5 orphans	51 convicts	38	UKQuant	1	97	1	simplified	impersonal	k	No	9.15525040565822	N/A	-1	0.780078260869565	0.0395944011356326	0.43984347826087	1	0	TRUE	0.56015652173913	0	0.45	0.901916050983937	8.25333435467429
0.55	7 assassins	47 pedophiles	38	UKQuant	1	49	1	simplified	impersonal	k	No	8.29204763743135	N/A	-1	0.283184210526316	0.0409760228853766	0.566368421052632	1	0	TRUE	0.433631578947368	0	0.55	0.0387132827570689	8.25333435467429
0.55	a thief	a member of parliament	38	UKQuant	1	79	1	simplified	impersonal	k	No	7.55433482372575	N/A	-1	0.729118181818182	0.0423479199197332	0.541763636363636	-1	1	FALSE	-0.458236363636364	1	0.55	-0.698999530948537	8.25333435467429
0.55	4 members of parliament	a thief	38	UKQuant	1	37	1	simplified	impersonal	d	Yes	8.22094116828139	N/A	-1	0.739421875	0.0388505291039715	0.52115625	1	1	TRUE	0.47884375	1	0.55	-0.0323931863928539	8.25333435467424
0.55	49 celebrities	49 orphans	38	UKQuant	1	99	1	simplified	impersonal	k	No	7.85864065562079	N/A	-1	0.289432	0.0409684242775798	0.578864	-1	1	FALSE	-0.421136	1	0.55	-0.394693699053494	8.25333435467429
0.65	a judge	an orphan	38	UKQuant	1	8	1	simplified	impersonal	d	Yes	8.81951754060489	N/A	-1	0.322067226890756	0.0423074577961801	0.644134453781513	-1	0	FALSE	-0.355865546218487	0	0.65	0.567402798090464	8.25211474251442
0.65	9 rapists	53 rapists	38	UKQuant	1	87	1	simplified	impersonal	d	Yes	8.43598313599069	N/A	-1	0.316365217391304	0.0421928416684866	0.632730434782609	1	1	TRUE	0.367269565217391	1	0.65	0.182648781316409	8.25333435467429
0.65	a pedophile	a hooligan	38	UKQuant	1	12	1	simplified	impersonal	k	No	8.3150770072941	N/A	-1	0.666138211382114	0.0421069136113999	0.667723577235772	-1	1	FALSE	-0.332276422764228	1	0.65	0.0617867526116402	8.25329025468246
0.65	6 addicts	a hooligan	38	UKQuant	1	90	1	simplified	impersonal	d	Yes	8.61740045183326	N/A	-1	0.656446280991736	0.0430627289398266	0.687107438016529	1	1	TRUE	0.312892561983471	1	0.65	0.364066097158977	8.25333435467429
0.65	a soldier	an olympian	38	UKQuant	1	60	1	simplified	impersonal	d	Yes	7.93236215433975	N/A	-1	0.664473684210526	0.0439513117646438	0.671052631578947	1	1	TRUE	0.328947368421053	1	0.65	-0.320972200334534	8.25333435467429
0.65	6 police officers	5 celebrities	38	UKQuant	1	74	1	simplified	impersonal	d	Yes	7.7553388128465	N/A	-1	0.319291338582677	0.0410361344291786	0.638582677165354	1	1	TRUE	0.361417322834646	1	0.65	-0.497995541827784	8.25333435467429
0.65	5 celebrities	50 elderly people	38	UKQuant	1	59	1	simplified	impersonal	k	No	8.16876982367527	N/A	-1	0.303203125	0.0405971230246954	0.60640625	-1	1	FALSE	-0.39359375	1	0.65	-0.0845645309990157	8.25333435467429
0.65	a university student	6 addicts	38	UKQuant	1	9	1	simplified	impersonal	k	No	9.07897805377936	N/A	-1	0.305833333333333	0.0412735879785145	0.611666666666667	1	0	TRUE	0.388333333333333	0	0.65	0.826175532907094	8.25280252087226
0.65	48 nuns	49 orphans	38	UKQuant	1	120	1	simplified	impersonal	k	No	8.22255363839696	N/A	-1	0.329076271186441	0.0444426211783304	0.658152542372881	-1	1	FALSE	-0.341847457627119	1	0.65	-0.0307807162773273	8.25333435467429
0.65	50 police officers	50 addicts	38	UKQuant	1	14	1	simplified	impersonal	d	Yes	8.55986946569667	N/A	-1	0.316594827586207	0.0432278545363067	0.633189655172414	1	1	TRUE	0.366810344827586	1	0.65	0.306543496868541	8.25332596882813
0.75	6 addicts	3 olympians	38	UKQuant	1	28	1	simplified	impersonal	d	Yes	8.93564033374757	N/A	-1	0.614392307692308	0.0437236261452998	0.771215384615385	-1	0	FALSE	-0.228784615384615	0	0.75	0.682305979148675	8.2533343545989
0.75	6 elderly people	3 olympians	38	UKQuant	1	25	1	simplified	impersonal	d	Yes	8.48817624234574	N/A	-1	0.373106870229008	0.0431008825435164	0.746213740458015	1	1	TRUE	0.253786259541985	1	0.75	0.234841888580625	8.25333435376512
0.75	47 university students	3 olympians	38	UKQuant	1	103	1	simplified	impersonal	d	Yes	8.01268092970684	N/A	-1	0.370669291338583	0.0424777260728258	0.741338582677165	1	1	TRUE	0.258661417322835	1	0.75	-0.240653424967446	8.25333435467429
0.75	an elderly person	a billionaire	38	UKQuant	1	93	1	simplified	impersonal	k	No	8.96251983294953	N/A	-1	0.365247706422018	0.045836332912133	0.730495412844037	1	0	TRUE	0.269504587155963	0	0.75	0.709185478275247	8.25333435467429
0.75	49 orphans	52 billionaires	38	UKQuant	1	38	1	simplified	impersonal	d	Yes	8.63621989783788	N/A	-1	0.635048	0.0415205208258477	0.729904	1	1	TRUE	0.270096	1	0.75	0.382885543163612	8.25333435467427
0.75	a judge	a mentor	38	UKQuant	1	83	1	simplified	impersonal	d	Yes	8.82878708391433	N/A	-1	0.384409836065574	0.0438599106800674	0.768819672131148	-1	0	FALSE	-0.231180327868852	0	0.75	0.575452729240046	8.25333435467429
0.75	4 members of parliament	53 judges	38	UKQuant	1	113	1	simplified	impersonal	k	No	8.48198043566049	N/A	-1	0.369720588235294	0.0434218099163748	0.739441176470588	-1	1	FALSE	-0.260558823529412	1	0.75	0.228646080986207	8.25333435467429
0.75	50 elderly people	48 members of parliament	38	UKQuant	1	45	1	simplified	impersonal	k	No	8.91166475804954	N/A	-1	0.352128	0.0423257733194219	0.704256	1	0	TRUE	0.295744	0	0.75	0.658330403375251	8.25333435467429
0.75	6 addicts	8 billionaires	38	UKQuant	1	112	1	simplified	impersonal	k	No	8.1605182474775	N/A	-1	0.3566953125	0.0425971718293181	0.713390625	-1	1	FALSE	-0.286609375	1	0.75	-0.0928161071967804	8.25333435467429
0.75	a judge	47 olympians	38	UKQuant	1	24	1	simplified	impersonal	k	No	8.28953948462414	N/A	-1	0.6195	0.0445041515860856	0.761	-1	1	FALSE	-0.239	1	0.75	0.0362051320347732	8.25333435258937
0.75	a mentor	a judge	38	UKQuant	1	43	1	simplified	impersonal	d	Yes	8.20821938349683	N/A	-1	0.384409836065574	0.0438599106800674	0.768819672131148	1	1	TRUE	0.231180327868852	1	0.75	-0.0451149711774512	8.25333435467429
0.75	an astronaut	50 addicts	38	UKQuant	1	2	1	simplified	impersonal	k	No	8.13505390861157	N/A	-1	0.357251968503937	0.0420695809796507	0.714503937007874	1	0	TRUE	0.285496062992126	0	0.75	0.0590962662574039	8.07595764235417
0.75	50 thieves	53 rapists	38	UKQuant	1	7	1	simplified	impersonal	d	Yes	7.93343838762749	N/A	-1	0.619610169491525	0.0429525541881057	0.760779661016949	1	1	TRUE	0.239220338983051	1	0.75	-0.317099127479961	8.25053751510745
0.75	53 judges	an orphan	38	UKQuant	1	30	1	simplified	impersonal	d	Yes	8.74385056203024	N/A	-1	0.387039682539683	0.0431751176624526	0.774079365079365	-1	0	FALSE	-0.225920634920635	0	0.75	0.490516207370293	8.25333435465995
0.75	52 terrorists	5 hooligans	38	UKQuant	1	20	1	simplified	impersonal	k	No	8.06117135969092	N/A	-1	0.62596062992126	0.0434346149647439	0.74807874015748	-1	1	FALSE	-0.25192125984252	1	0.75	-0.19216293732371	8.25333429701463
0.75	an olympian	50 elderly people	38	UKQuant	1	84	1	simplified	impersonal	k	No	7.4759059693674	N/A	-1	0.614715517241379	0.0448274127904394	0.770568965517241	-1	1	FALSE	-0.229431034482759	1	0.75	-0.777428385306888	8.25333435467429
0.75	4 soldiers	5 astronauts	38	UKQuant	1	62	1	simplified	impersonal	d	Yes	8.00803284696931	N/A	-1	0.600341463414634	0.0437107694553483	0.799317073170732	1	1	TRUE	0.200682926829268	1	0.75	-0.245301507704978	8.25333435467429
0.75	a member of parliament	3 university students	38	UKQuant	1	118	1	simplified	impersonal	k	No	7.68156036255954	N/A	-1	0.633111111111111	0.0448584189018161	0.733777777777778	-1	1	FALSE	-0.266222222222222	1	0.75	-0.571773992114748	8.25333435467429
0.85	a university student	a homeless adult	38	UKQuant	1	100	1	simplified	impersonal	d	Yes	8.08332860878638	N/A	-1	0.5778	0.0439436348410443	0.8444	1	1	TRUE	0.1556	1	0.85	-0.170005745887909	8.25333435467429
0.85	49 celebrities	48 homeless adults	38	UKQuant	1	29	1	simplified	impersonal	d	Yes	9.10586835037947	N/A	-1	0.552491803278689	0.0453089215278561	0.895016393442623	-1	0	FALSE	-0.104983606557377	0	0.85	0.852533995738062	8.25333435464141
0.85	a billionaire	5 mentors	38	UKQuant	1	75	1	simplified	impersonal	k	No	8.67025756714308	N/A	-1	0.567614678899083	0.0461609371643415	0.864770642201835	-1	1	FALSE	-0.135229357798165	1	0.85	0.41692321246879	8.25333435467429
0.85	5 astronauts	4 nuns	38	UKQuant	1	108	1	simplified	impersonal	d	Yes	8.20083725837985	N/A	-1	0.403727272727273	0.043841351057648	0.807454545454545	1	1	TRUE	0.192545454545455	1	0.85	-0.0524970962944362	8.25333435467429
0.85	48 members of parliament	an adult	38	UKQuant	1	42	1	simplified	impersonal	d	Yes	8.62748154531036	N/A	-1	0.412768595041322	0.0460925028881083	0.825537190082645	-1	0	FALSE	-0.174462809917355	0	0.85	0.374147190636075	8.25333435467429
0.85	an assassin	5 hooligans	38	UKQuant	1	104	1	simplified	impersonal	k	No	7.82484569102686	N/A	-1	0.585007633587786	0.0425791485903695	0.829984732824427	-1	1	FALSE	-0.170015267175573	1	0.85	-0.428488663647429	8.25333435467429
0.85	52 terrorists	a terrorist	38	UKQuant	1	48	1	simplified	impersonal	k	No	9.24532134087143	N/A	-1	0.40836974789916	0.0437797592561104	0.816739495798319	-1	1	FALSE	-0.183260504201681	1	0.85	0.991986986197142	8.25333435467429
0.85	an assassin	a convict	38	UKQuant	1	19	1	simplified	impersonal	k	No	8.358666283188	N/A	-1	0.577759398496241	0.0436704071282456	0.844481203007519	-1	1	FALSE	-0.155518796992481	1	0.85	0.105332060740015	8.25333422244799
0.85	a judge	a celebrity	38	UKQuant	1	109	1	simplified	impersonal	d	Yes	7.40245152081824	N/A	-1	0.421017857142857	0.0468028882071203	0.842035714285714	1	1	TRUE	0.157964285714286	1	0.85	-0.850882833856041	8.25333435467429
0.85	a police officer	47 university students	38	UKQuant	1	72	1	simplified	impersonal	k	No	8.07184314960916	N/A	-1	0.567496062992126	0.0437611866808083	0.865007874015748	-1	1	FALSE	-0.134992125984252	1	0.85	-0.181491205065127	8.25333435467429
0.85	6 addicts	52 billionaires	38	UKQuant	1	54	1	simplified	impersonal	k	No	8.13593277200489	N/A	-1	0.59847619047619	0.0427324217885583	0.803047619047619	-1	1	FALSE	-0.196952380952381	1	0.85	-0.117401582669395	8.25333435467429
0.85	a rapist	7 assassins	38	UKQuant	1	98	1	simplified	impersonal	k	No	9.02389030459845	N/A	-1	0.563975409836066	0.0451261216588774	0.872049180327869	-1	1	FALSE	-0.127950819672131	1	0.85	0.770555949924162	8.25333435467429
0.85	an orphan	50 police officers	38	UKQuant	1	64	1	simplified	impersonal	k	No	7.89766815072691	N/A	-1	0.422589285714286	0.0465248420279063	0.845178571428571	1	0	TRUE	0.154821428571429	0	0.85	-0.355666203947379	8.25333435467429
0.85	a billionaire	a member of parliament	38	UKQuant	1	92	1	simplified	impersonal	k	No	7.42595365707754	N/A	-1	0.578660194174757	0.0482498820354862	0.842679611650486	1	0	TRUE	0.157320388349514	0	0.85	-0.827380697596745	8.25333435467429
