overlapRound	IA.1.org	IB.1.org	Exp_Name	sn	Gender	Birth	cond	Trial	BlockNum	BlockIt	TrialinBlock	respType	posttgap	keybResp	keybRT	keyDef	Set	IA.1	IB.1	nIA	nIB	ones	trial	trial_type	averageP	sdP	overlap	direct.xVy	correct	targetPresent	dirOverlap	correct01	overlapRoundSN	res.RT	fit.RT
0.05	47 pedophiles	4 soldiers	cMorals	dtty169	Female	23	cMorals1	116	1	1	116	key	500	d	7.96998017020198	No	1_1	47个恋童癖	4位士兵	1	1	1	116	1	0.954682926829268	0.0190007253027945	0.0906341463414635	-1	1	FALSE	-0.909365853658537	1	0.05	0.0695371383551944	7.90044303184678
0.05	an orphan	a pedophile	cMorals	dtty169	Female	23	cMorals1	10	1	1	10	key	500	k	7.74569520442815	Yes	1_1	1个孤儿	1位恋童癖的人	1	1	1	10	1	0.0280813008130081	0.0154203479030839	0.0561626016260163	1	1	TRUE	0.943837398373984	1	0.05	-0.369920132068047	8.1156153364962
0.05	an astronaut	a rapist	cMorals	dtty169	Female	23	cMorals1	40	1	1	40	key	500	k	7.39092189478356	Yes	1_1	1位宇航员	1位强奸犯	1	1	1	40	1	0.0485230769230769	0.0188094070558801	0.0970461538461539	1	1	TRUE	0.902953846153846	1	0.05	-0.509816354821944	7.90073824960551
0.05	9 rapists	an orphan	cMorals	dtty169	Female	23	cMorals1	71	1	1	71	key	500	d	7.47164762368482	No	1_1	9个强奸犯	1个孤儿	1	1	1	71	1	0.0367542372881356	0.0179250909145159	0.0735084745762712	-1	1	FALSE	-0.926491525423729	1	0.05	-0.428795733290509	7.90044335697533
0.15	6 police officers	a rapist	cMorals	dtty169	Female	23	cMorals1	51	1	1	51	key	500	k	8.35854909797664	Yes	1_1	6位警察	1位强奸犯	1	1	1	51	1	0.935671875	0.0220517568722546	0.12865625	1	1	TRUE	0.87134375	1	0.15	0.458079732777793	7.90046936519885
0.15	a terrorist	53 adults	cMorals	dtty169	Female	23	cMorals1	21	1	1	21	key	500	k	7.76561148900396	Yes	1_1	1位恐怖分子	53位成年人	1	1	1	21	1	0.943404958677686	0.0213658016064366	0.113190082644628	-1	0	FALSE	-0.886809917355372	0	0.15	-0.154024870883165	7.91963635988712
0.15	a rapist	50 elderly people	cMorals	dtty169	Female	23	cMorals1	118	1	1	118	key	500	d	7.73503991848174	No	1_1	1位强奸犯	50位老人	1	1	1	118	1	0.938395348837209	0.0209438521442713	0.123209302325581	-1	1	FALSE	-0.876790697674419	1	0.15	-0.165403113359171	7.90044303184091
0.15	a pedophile	6 police officers	cMorals	dtty169	Female	23	cMorals1	26	1	1	26	key	500	d	7.49108759353488	No	1_1	1位恋童癖的人	6位警察	1	1	1	26	1	0.942136	0.0209862318181689	0.115728	-1	1	FALSE	-0.884272	1	0.15	-0.415753419722478	7.90684101325735
0.15	9 adults	a terrorist	cMorals	dtty169	Female	23	cMorals1	74	1	1	74	key	500	k	7.44014668066269	Yes	1_1	9位成年人	1位恐怖分子	1	1	1	74	1	0.94572131147541	0.0207387052138675	0.10855737704918	1	1	TRUE	0.89144262295082	1	0.15	-0.460296519362458	7.90044320002515
0.15	5 celebrities	47 pedophiles	cMorals	dtty169	Female	23	cMorals1	89	1	1	89	key	500	k	7.52833176670725	Yes	1_1	5个明星	47个恋童癖	1	1	1	89	1	0.099424	0.0257609753668578	0.198848	1	1	TRUE	0.801152	1	0.15	-0.372111271353054	7.9004430380603
0.15	48 homeless adults	53 rapists	cMorals	dtty169	Female	23	cMorals1	62	1	1	62	key	500	k	7.94204235708098	Yes	1_1	48个流浪的人	53个强奸犯	1	1	1	62	1	0.904421052631579	0.0265375688797027	0.191157894736842	1	1	TRUE	0.808842105263158	1	0.15	0.0415969763193198	7.90044538076166
0.15	an olympian	9 rapists	cMorals	dtty169	Female	23	cMorals1	16	1	1	16	key	500	k	8.10693662256476	Yes	1_1	1位奥运选手	9个强奸犯	1	1	1	16	1	0.0553660714285714	0.0209852260711954	0.110732142857143	1	1	TRUE	0.889267857142857	1	0.15	0.148915455177803	7.95802116738695
0.15	6 thieves	4 soldiers	cMorals	dtty169	Female	23	cMorals1	97	1	1	97	key	500	d	7.50279336644491	No	1_1	6个小偷	4位士兵	1	1	1	97	1	0.918112903225806	0.0237142454055405	0.163774193548387	-1	1	FALSE	-0.836225806451613	1	0.15	-0.397649666459632	7.90044303290454
0.15	8 billionaires	a pedophile	cMorals	dtty169	Female	23	cMorals1	54	1	1	54	key	500	k	7.69503012225593	Yes	1_1	8位亿万富翁	1位恋童癖的人	1	1	1	54	1	0.914484615384615	0.0253217720328662	0.171030769230769	1	1	TRUE	0.828969230769231	1	0.15	-0.205426531610562	7.90045665386649
0.15	3 pedophiles	an olympian	cMorals	dtty169	Female	23	cMorals1	9	1	1	9	key	500	d	7.81375322138531	No	1_1	3个恋童癖	1位奥运选手	1	1	1	9	1	0.086078947368421	0.025957780830433	0.172157894736842	-1	1	FALSE	-0.827842105263158	1	0.15	-0.35473488655718	8.16848810794249
0.15	a rapist	a university student	cMorals	dtty169	Female	23	cMorals1	17	1	1	17	key	500	d	7.94214899531512	No	1_1	1位强奸犯	1位大学生	1	1	1	17	1	0.949645161290323	0.0204382379800172	0.100709677419355	-1	1	FALSE	-0.899290322580645	1	0.15	-0.00451469576318964	7.94666369107831
0.15	4 nuns	a rapist	cMorals	dtty169	Female	23	cMorals1	85	1	1	85	key	500	k	7.43378473648336	Yes	1_1	4位修女	1位强奸犯	1	1	1	85	1	0.902627906976744	0.0269856500907892	0.194744186046512	1	1	TRUE	0.805255813953488	1	0.15	-0.466658310349856	7.90044304683321
0.15	a terrorist	49 astronauts	cMorals	dtty169	Female	23	cMorals1	23	1	1	23	key	500	d	8.03993128449991	No	1_1	1位恐怖分子	49位宇航员	1	1	1	23	1	0.943235294117647	0.0215551616794073	0.113529411764706	-1	1	FALSE	-0.886470588235294	1	0.15	0.127120028107317	7.9128112563926
0.15	an elderly person	3 pedophiles	cMorals	dtty169	Female	23	cMorals1	28	1	1	28	key	500	k	7.87188334027045	Yes	1_1	1位老人	3个恋童癖	1	1	1	28	1	0.0651709401709402	0.0227573062131949	0.13034188034188	1	1	TRUE	0.86965811965812	1	0.15	-0.0326825654460619	7.90456590571651
0.25	3 pedophiles	52 billionaires	cMorals	dtty169	Female	23	cMorals1	79	1	1	79	key	500	d	7.80669637252118	No	1_1	3个恋童癖	52位亿万富翁	1	1	1	79	1	0.115887096774194	0.0286167530364714	0.231774193548387	-1	1	FALSE	-0.768225806451613	1	0.25	-0.0937467153758433	7.90044308789702
0.25	52 terrorists	47 olympians	cMorals	dtty169	Female	23	cMorals1	5	1	1	5	key	500	d	8.60595470269806	No	1_1	52个恐怖分子	47名奥运选手	1	1	1	5	1	0.882479338842975	0.0294338866577995	0.23504132231405	-1	1	FALSE	-0.76495867768595	1	0.25	0.0600154812858253	8.54593922141223
0.25	52 billionaires	53 rapists	cMorals	dtty169	Female	23	cMorals1	59	1	1	59	key	500	k	7.81919426013964	Yes	1_1	52位亿万富翁	53个强奸犯	1	1	1	59	1	0.8624	0.0322887029488007	0.2752	1	1	TRUE	0.7248	1	0.25	-0.0812533125151482	7.90044757265479
0.25	6 elderly people	a convict	cMorals	dtty169	Female	23	cMorals1	94	1	1	94	key	500	k	7.6490733843977	Yes	1_1	6个老人	1位罪犯	1	1	1	94	1	0.857621212121212	0.0305612462916496	0.284757575757576	1	1	TRUE	0.715242424242424	1	0.25	-0.251369649509312	7.90044303390701
0.25	53 judges	52 terrorists	cMorals	dtty169	Female	23	cMorals1	19	1	1	19	key	500	k	7.84035233713998	Yes	1_1	53位法官	52个恐怖分子	1	1	1	19	1	0.13151968503937	0.0303345193400085	0.26303937007874	1	1	TRUE	0.73696062992126	1	0.25	-0.0898753933785681	7.93022773051855
0.25	53 rapists	5 celebrities	cMorals	dtty169	Female	23	cMorals1	14	1	1	14	key	500	d	8.26015670909118	No	1_1	53个强奸犯	5个明星	1	1	1	14	1	0.866959016393443	0.0308547594227938	0.266081967213115	-1	1	FALSE	-0.733918032786885	1	0.25	0.270362449922489	7.98979425916869
0.25	4 soldiers	49 hooligans	cMorals	dtty169	Female	23	cMorals1	105	1	1	105	key	500	k	7.54475529892539	Yes	1_1	4位士兵	49个流氓	1	1	1	105	1	0.882479338842975	0.0293804131503049	0.23504132231405	1	1	TRUE	0.76495867768595	1	0.25	-0.355687733090121	7.90044303201551
0.25	48 soldiers	50 thieves	cMorals	dtty169	Female	23	cMorals1	20	1	1	20	key	500	k	7.29810674928025	Yes	1_1	48位士兵	50个小偷	1	1	1	20	1	0.86453781512605	0.0315945553306293	0.270924369747899	1	1	TRUE	0.729075630252101	1	0.25	-0.626245851617624	7.92435260089788
0.25	53 rapists	a celebrity	cMorals	dtty169	Female	23	cMorals1	12	1	1	12	key	500	d	7.72740294314617	No	1_1	53个强奸犯	1个明星	1	1	1	12	1	0.115779816513761	0.0321597098785697	0.231559633027523	-1	1	FALSE	-0.768440366972477	1	0.25	-0.311697614664972	8.03910055781114
0.25	7 convicts	4 soldiers	cMorals	dtty169	Female	23	cMorals1	48	1	1	48	key	500	d	8.04440167963867	No	1_1	7位罪犯	4位士兵	1	1	1	48	1	0.883451612903226	0.0288259611269121	0.233096774193548	-1	1	FALSE	-0.766903225806452	1	0.25	0.143907741593706	7.90049393804496
0.25	48 homeless adults	an assassin	cMorals	dtty169	Female	23	cMorals1	114	1	1	114	key	500	k	7.66011431917393	Yes	1_1	48个流浪的人	1位刺客	1	1	1	114	1	0.855704918032787	0.0316037024785078	0.288590163934426	1	1	TRUE	0.711409836065574	1	0.25	-0.240328712681974	7.9004430318559
0.25	53 judges	a rapist	cMorals	dtty169	Female	23	cMorals1	46	1	1	46	key	500	k	7.80706260580618	Yes	1_1	53位法官	1位强奸犯	1	1	1	46	1	0.896827067669173	0.0267307301167971	0.206345864661654	1	1	TRUE	0.793654135338346	1	0.25	-0.0934594235935329	7.90052202939971
0.25	a terrorist	a billionaire	cMorals	dtty169	Female	23	cMorals1	22	1	1	22	key	500	d	7.6756852039913	No	1_1	1位恐怖分子	1位亿万富翁	1	1	1	22	1	0.893864864864865	0.0300611788241438	0.21227027027027	-1	1	FALSE	-0.78772972972973	1	0.25	-0.240165208911224	7.91585041290252
0.25	a convict	an orphan	cMorals	dtty169	Female	23	cMorals1	109	1	1	109	key	500	d	7.83046536264426	No	1_1	1位罪犯	1个孤儿	1	1	1	109	1	0.129421875	0.0291538902129531	0.25884375	-1	1	FALSE	-0.74115625	1	0.25	-0.0699776692629213	7.90044303190718
0.25	a rapist	49 celebrities	cMorals	dtty169	Female	23	cMorals1	29	1	1	29	key	500	d	7.34471905414967	No	1_1	1位强奸犯	49个明星	1	1	1	29	1	0.882419847328244	0.0286444435674989	0.235160305343511	-1	1	FALSE	-0.764839694656489	1	0.25	-0.559033601154443	7.90375265530412
0.25	an assassin	48 homeless adults	cMorals	dtty169	Female	23	cMorals1	92	1	1	92	key	500	d	7.91655226333223	No	1_1	1位刺客	48个流浪的人	1	1	1	92	1	0.855704918032787	0.0316037024785078	0.288590163934426	-1	1	FALSE	-0.711409836065574	1	0.25	0.0161092282792197	7.90044303505301
0.35	51 assassins	an elderly person	cMorals	dtty169	Female	23	cMorals1	76	1	1	76	key	500	d	7.46931203914089	No	1_1	51位刺客	1位老人	1	1	1	76	1	0.158675	0.0321522044401542	0.31735	-1	1	FALSE	-0.68265	1	0.35	-0.43113110107454	7.90044314021543
0.35	5 hooligans	6 police officers	cMorals	dtty169	Female	23	cMorals1	34	1	1	34	key	500	d	7.79197726131602	No	1_1	5个流氓	6位警察	1	1	1	34	1	0.1783984375	0.0351180182578502	0.356796875	-1	1	FALSE	-0.643203125	1	0.35	-0.10956901375865	7.90154627507467
0.35	51 assassins	50 elderly people	cMorals	dtty169	Female	23	cMorals1	38	1	1	38	key	500	d	8.05933945241258	No	1_1	51位刺客	50位老人	1	1	1	38	1	0.815071428571429	0.0351166728431919	0.369857142857143	-1	1	FALSE	-0.630142857142857	1	0.35	0.158438294067884	7.9009011583447
0.35	53 adults	a convict	cMorals	dtty169	Female	23	cMorals1	96	1	1	96	key	500	k	7.2331665682181	Yes	1_1	53位成年人	1位罪犯	1	1	1	96	1	0.831893129770992	0.0322616204514054	0.336213740458015	1	1	TRUE	0.663786259541985	1	0.35	-0.667276464950422	7.90044303316852
0.35	49 hooligans	a university student	cMorals	dtty169	Female	23	cMorals1	86	1	1	86	key	500	d	7.97621759069117	No	1_1	49个流氓	1位大学生	1	1	1	86	1	0.155286956521739	0.0328554284208752	0.310573913043478	-1	1	FALSE	-0.689426086956522	1	0.35	0.0757745468173434	7.90044304387383
0.35	49 mentors	a hooligan	cMorals	dtty169	Female	23	cMorals1	78	1	1	78	key	500	k	7.40494840103133	Yes	1_1	49位导师	1个流氓	1	1	1	78	1	0.837885245901639	0.0330389521185582	0.324229508196721	1	1	TRUE	0.675770491803279	1	0.35	-0.49549470064258	7.90044310167391
0.35	an assassin	4 nuns	cMorals	dtty169	Female	23	cMorals1	41	1	1	41	key	500	d	8.09629967513633	No	1_1	1位刺客	4位修女	1	1	1	41	1	0.838047244094488	0.0320308185226346	0.323905511811024	-1	1	FALSE	-0.676094488188976	1	0.35	0.195619658206398	7.90068001692993
0.35	a thief	8 billionaires	cMorals	dtty169	Female	23	cMorals1	87	1	1	87	key	500	d	7.8971849422086	No	1_1	1个小偷	8位亿万富翁	1	1	1	87	1	0.81232	0.0352361630599472	0.37536	-1	1	FALSE	-0.62464	1	0.35	-0.00325809928959409	7.9004430414982
0.35	51 assassins	6 elderly people	cMorals	dtty169	Female	23	cMorals1	111	1	1	111	key	500	d	7.66011431917393	No	1_1	51位刺客	6个老人	1	1	1	111	1	0.153236220472441	0.031960118711349	0.306472440944882	-1	1	FALSE	-0.693527559055118	1	0.35	-0.240328712705902	7.90044303187983
0.35	49 mentors	49 hooligans	cMorals	dtty169	Female	23	cMorals1	72	1	1	72	key	500	k	7.25742574874278	Yes	1_1	49位导师	49个流氓	1	1	1	72	1	0.157941666666667	0.0330388129384608	0.315883333333333	1	1	TRUE	0.684116666666667	1	0.35	-0.643017544096619	7.9004432928394
0.45	4 homeless adults	51 convicts	cMorals	dtty169	Female	23	cMorals1	99	1	1	99	key	500	k	7.47238703731343	Yes	1_1	4个流浪的人	51个罪犯	1	1	1	99	1	0.767636363636364	0.0411898737143694	0.464727272727273	1	1	TRUE	0.535272727272727	1	0.45	-0.428055995209099	7.90044303252253
0.45	5 orphans	an addict	cMorals	dtty169	Female	23	cMorals1	45	1	1	45	key	500	k	7.52585558523844	Yes	1_1	5个孤儿	1位瘾君子	1	1	1	45	1	0.775672268907563	0.0382428524117636	0.448655462184874	1	1	TRUE	0.551344537815126	1	0.45	-0.374685855676336	7.90054144091478
0.45	a celebrity	7 assassins	cMorals	dtty169	Female	23	cMorals1	44	1	1	44	key	500	k	7.39467747863727	Yes	1_1	1个明星	7位刺客	1	1	1	44	1	0.214185185185185	0.0395021929649202	0.42837037037037	1	1	TRUE	0.57162962962963	1	0.45	-0.505888143647147	7.90056562228442
0.45	a convict	a judge	cMorals	dtty169	Female	23	cMorals1	90	1	1	90	key	500	d	7.34555849500994	No	1_1	1位罪犯	1位法官	1	1	1	90	1	0.200496124031008	0.0348817844008144	0.400992248062015	-1	1	FALSE	-0.599007751937985	1	0.45	-0.554884541821465	7.9004430368314
0.45	50 thieves	48 homeless adults	cMorals	dtty169	Female	23	cMorals1	36	1	1	36	key	500	d	8.22828369933596	No	1_1	50个小偷	48个流浪的人	1	1	1	36	1	0.776291666666667	0.0367427387151902	0.447416666666667	-1	1	FALSE	-0.552583333333333	1	0.45	0.327129735032011	7.90115396430394
0.45	52 billionaires	6 thieves	cMorals	dtty169	Female	23	cMorals1	115	1	1	115	key	500	k	8.27320897423018	Yes	1_1	52位亿万富翁	6个小偷	1	1	1	115	1	0.785887096774194	0.0355066687073038	0.428225806451613	1	1	TRUE	0.571774193548387	1	0.45	0.372765942379331	7.90044303185084
0.55	47 pedophiles	7 assassins	cMorals	dtty169	Female	23	cMorals1	104	1	1	104	key	500	d	9.03287500478767	No	1_1	47个恋童癖	7位刺客	1	1	1	104	1	0.283184210526316	0.0409760228853766	0.566368421052632	-1	1	FALSE	-0.433631578947368	1	0.55	1.13243197272665	7.90044303206103
0.55	6 elderly people	5 celebrities	cMorals	dtty169	Female	23	cMorals1	101	1	1	101	key	500	d	8.2174655279096	No	1_1	6个老人	5个明星	1	1	1	101	1	0.281100775193798	0.0410277258014636	0.562201550387597	1	0	TRUE	0.437798449612403	0	0.55	0.317022495633242	7.90044303227636
0.55	5 celebrities	an orphan	cMorals	dtty169	Female	23	cMorals1	47	1	1	47	key	500	d	7.94781995403747	No	1_1	5个明星	1个孤儿	1	1	1	47	1	0.288248	0.0403262284462693	0.576496	-1	1	FALSE	-0.423504	1	0.55	0.0473135071677406	7.90050644686973
0.55	48 soldiers	4 nuns	cMorals	dtty169	Female	23	cMorals1	37	1	1	37	key	500	d	8.47263505955701	No	1_1	48位士兵	4位修女	1	1	1	37	1	0.2542	0.0397970465741761	0.5084	1	0	TRUE	0.4916	0	0.55	0.571621329018001	7.90101373053901
0.55	a hooligan	52 terrorists	cMorals	dtty169	Female	23	cMorals1	2	1	1	2	key	500	k	9.52590994791312	Yes	1_1	1个流氓	52个恐怖分子	1	1	1	2	1	0.283512605042017	0.040976304020954	0.567025210084034	1	1	TRUE	0.432974789915966	1	0.55	0.377629310134877	9.14828063777824
0.55	51 convicts	53 judges	cMorals	dtty169	Female	23	cMorals1	61	1	1	61	key	500	d	8.24868609834114	No	1_1	51个罪犯	53位法官	1	1	1	61	1	0.259516666666667	0.0397357351872731	0.519033333333333	-1	1	FALSE	-0.480966666666667	1	0.55	0.348240140393155	7.90044595794799
0.55	an elderly person	6 addicts	cMorals	dtty169	Female	23	cMorals1	25	1	1	25	key	500	d	8.47112831028217	No	1_1	1位老人	6位瘾君子	1	1	1	25	1	0.275655462184874	0.0403354606300775	0.551310924369748	1	0	TRUE	0.448689075630252	0	0.55	0.562715166214403	7.90841314406776
0.55	3 university students	an addict	cMorals	dtty169	Female	23	cMorals1	102	1	1	102	key	500	k	7.36966373049098	Yes	1_1	3位大学生	1位瘾君子	1	1	1	102	1	0.740065040650406	0.0412323683363082	0.519869918699187	1	1	TRUE	0.480130081300813	1	0.55	-0.530779301697385	7.90044303218837
0.65	49 astronauts	6 addicts	cMorals	dtty169	Female	23	cMorals1	6	1	1	6	key	500	k	8.10648435897783	Yes	1_1	49位宇航员	6位瘾君子	1	1	1	6	1	0.692639344262295	0.0409220200552774	0.61472131147541	1	1	TRUE	0.38527868852459	1	0.65	-0.312128619414999	8.41861297839283
0.65	a rapist	53 rapists	cMorals	dtty169	Female	23	cMorals1	57	1	1	57	key	500	d	8.60677792115179	No	1_1	1位强奸犯	53个强奸犯	1	1	1	57	1	0.321650406504065	0.0407016701915461	0.64330081300813	1	0	TRUE	0.35669918699187	0	0.65	0.706327842753574	7.90045007839821
0.65	9 judges	an elderly person	cMorals	dtty169	Female	23	cMorals1	110	1	1	110	key	500	d	7.81282327084346	No	1_1	9个法官	1位老人	1	1	1	110	1	0.315407079646018	0.0429378311835935	0.630814159292035	-1	1	FALSE	-0.369185840707965	1	0.65	-0.0876197610485558	7.90044303189201
0.65	9 judges	an orphan	cMorals	dtty169	Female	23	cMorals1	80	1	1	80	key	500	k	8.61727379281765	Yes	1_1	9个法官	1个孤儿	1	1	1	80	1	0.307391304347826	0.0426171415937252	0.614782608695652	-1	0	FALSE	-0.385217391304348	0	0.65	0.716830715979984	7.90044307683767
0.65	48 soldiers	50 police officers	cMorals	dtty169	Female	23	cMorals1	15	1	1	15	key	500	d	7.53465581372952	No	1_1	48位士兵	50位警官	1	1	1	15	1	0.660209090909091	0.044718650377397	0.679581818181818	1	0	TRUE	0.320418181818182	0	0.65	-0.437513622442852	7.97216943617238
0.65	an assassin	52 terrorists	cMorals	dtty169	Female	23	cMorals1	108	1	1	108	key	500	k	8.4260423495553	Yes	1_1	1位刺客	52个恐怖分子	1	1	1	108	1	0.34716	0.0409183664472656	0.69432	1	1	TRUE	0.30568	1	0.65	0.525599317629215	7.90044303192609
0.75	49 celebrities	9 adults	cMorals	dtty169	Female	23	cMorals1	24	1	1	24	key	500	d	7.84737183615979	No	1_1	49个明星	9位成年人	1	1	1	24	1	0.384685039370079	0.0425803141803327	0.769370078740158	-1	1	FALSE	-0.230629921259842	1	0.75	-0.0629997473241861	7.91037158348397
0.75	48 homeless adults	a soldier	cMorals	dtty169	Female	23	cMorals1	88	1	1	88	key	500	k	8.47878494812487	Yes	1_1	48个流浪的人	1位士兵	1	1	1	88	1	0.393127118644068	0.044716156519456	0.786254237288136	-1	0	FALSE	-0.213745762711864	0	0.75	0.578341908533708	7.90044303959116
0.75	a police officer	a nun	cMorals	dtty169	Female	23	cMorals1	39	1	1	39	key	500	d	7.8379883629884	No	1_1	1位警察	1位修女	1	1	1	39	1	0.378480916030534	0.0421688917059884	0.756961832061069	1	0	TRUE	0.243038167938931	0	0.75	-0.0628224283969692	7.90081079138537
0.75	8 billionaires	6 addicts	cMorals	dtty169	Female	23	cMorals1	73	1	1	73	key	500	k	7.77963424747551	Yes	1_1	8位亿万富翁	6位瘾君子	1	1	1	73	1	0.3566953125	0.0425971718293181	0.713390625	1	1	TRUE	0.286609375	1	0.75	-0.120808993878977	7.90044324135449
0.75	9 judges	a university student	cMorals	dtty169	Female	23	cMorals1	67	1	1	67	key	500	k	8.15297558728291	Yes	1_1	9个法官	1位大学生	1	1	1	67	1	0.366078947368421	0.0444221442213966	0.732157894736842	-1	0	FALSE	-0.267842105263158	0	0.75	0.252531772450375	7.90044381483253
0.75	48 nuns	a soldier	cMorals	dtty169	Female	23	cMorals1	43	1	1	43	key	500	k	7.84791877525854	Yes	1_1	48位修女	1位士兵	1	1	1	43	1	0.363581196581197	0.0445623540015613	0.727162393162393	-1	0	FALSE	-0.272837606837607	0	0.75	-0.052676970312767	7.9005957455713
0.75	49 hooligans	a pedophile	cMorals	dtty169	Female	23	cMorals1	113	1	1	113	key	500	k	8.04134853654933	Yes	1_1	49个流氓	1位恋童癖的人	1	1	1	113	1	0.626206611570248	0.0425865387820962	0.747586776859504	1	1	TRUE	0.252413223140496	1	0.75	0.140905504687125	7.9004430318622
0.75	49 mentors	48 soldiers	cMorals	dtty169	Female	23	cMorals1	84	1	1	84	key	500	d	7.86691391108347	No	1_1	49位导师	48位士兵	1	1	1	84	1	0.637900826446281	0.0425567034516162	0.724198347107438	-1	1	FALSE	-0.275801652892562	1	0.75	-0.0335291394363137	7.90044305051978
0.75	7 convicts	8 terrorists	cMorals	dtty169	Female	23	cMorals1	27	1	1	27	key	500	k	8.40706577657605	Yes	1_1	7位罪犯	8位恐怖分子	1	1	1	27	1	0.637074380165289	0.043295096819966	0.725851239669421	1	1	TRUE	0.274148760330579	1	0.75	0.501486786164332	7.90557899041172
0.75	a rapist	50 thieves	cMorals	dtty169	Female	23	cMorals1	13	1	1	13	key	500	d	8.32049681011397	No	1_1	1位强奸犯	50个小偷	1	1	1	13	1	0.6124765625	0.0404806926448196	0.775046875	-1	1	FALSE	-0.224953125	1	0.75	0.308746904614109	8.01174990549987
0.85	52 billionaires	an adult	cMorals	dtty169	Female	23	cMorals1	69	1	1	69	key	500	k	7.60618846398318	Yes	1_1	52位亿万富翁	1位成年人	1	1	1	69	1	0.442581967213115	0.0449693631518608	0.88516393442623	-1	0	FALSE	-0.11483606557377	0	0.85	-0.29425507241554	7.90044353639872
0.85	3 olympians	a police officer	cMorals	dtty169	Female	23	cMorals1	68	1	1	68	key	500	k	7.93894489134556	Yes	1_1	3个奥运选手	1位警察	1	1	1	68	1	0.441985294117647	0.0432678739583464	0.883970588235294	-1	0	FALSE	-0.116029411764706	0	0.85	0.0385012309628019	7.90044366038276
0.85	48 homeless adults	4 soldiers	cMorals	dtty169	Female	23	cMorals1	112	1	1	112	key	500	d	7.89896793737355	No	1_1	48个流浪的人	4位士兵	1	1	1	112	1	0.599360655737705	0.0455534230449856	0.80127868852459	-1	1	FALSE	-0.19872131147541	1	0.85	-0.00147509449650141	7.90044303187005
0.85	52 terrorists	49 hooligans	cMorals	dtty169	Female	23	cMorals1	103	1	1	103	key	500	d	7.54934597262768	No	1_1	52个恐怖分子	49个流氓	1	1	1	103	1	0.553102564102564	0.0448552457664853	0.893794871794872	-1	1	FALSE	-0.106205128205128	1	0.85	-0.351097059490049	7.90044303211773
0.85	a judge	49 mentors	cMorals	dtty169	Female	23	cMorals1	60	1	1	60	key	500	d	7.43667619099615	No	1_1	1位法官	49位导师	1	1	1	60	1	0.593715447154472	0.0437404541137472	0.812569105691057	-1	1	FALSE	-0.187430894308943	1	0.85	-0.463770485966092	7.90044667696224
0.85	4 homeless adults	a judge	cMorals	dtty169	Female	23	cMorals1	82	1	1	82	key	500	d	7.81193294296284	No	1_1	4个流浪的人	1位法官	1	1	1	82	1	0.568820512820513	0.0442121262614485	0.862358974358974	1	0	TRUE	0.137641025641026	0	0.85	-0.0885101178702996	7.90044306083314
0.85	4 nuns	5 mentors	cMorals	dtty169	Female	23	cMorals1	1	1	1	1	key	500	d	9.24090837354607	No	1_1	4位修女	5位导师	1	1	1	1	1	0.403386554621849	0.0478116274970341	0.806773109243697	-1	1	FALSE	-0.193226890756303	1	0.85	-0.213994590203939	9.45490296375001
0.85	47 university students	a mentor	cMorals	dtty169	Female	23	cMorals1	64	1	1	64	key	500	k	9.10685587327935	Yes	1_1	47位大学生	1位导师	1	1	1	64	1	0.572	0.04488946921405	0.856	1	1	TRUE	0.144	1	0.85	1.20641132779232	7.90044454548703
0.85	50 addicts	51 convicts	cMorals	dtty169	Female	23	cMorals1	4	1	1	4	key	500	d	9.5324093782832	No	1_1	50个瘾君子	51个罪犯	1	1	1	4	1	0.592060344827586	0.0449940544693318	0.815879310344828	1	0	TRUE	0.184120689655172	0	0.85	0.827856934996488	8.70455244328671
0.85	50 police officers	an olympian	cMorals	dtty169	Female	23	cMorals1	63	1	1	63	key	500	d	8.09498875930377	No	1_1	50位警官	1位奥运选手	1	1	1	63	1	0.573271028037383	0.0480184685832058	0.853457943925234	1	0	TRUE	0.146542056074766	0	0.85	0.194543841876548	7.90044491742723
0.85	3 university students	9 adults	cMorals	dtty169	Female	23	cMorals1	66	1	1	66	key	500	d	7.6500735035542	No	1_1	3位大学生	9位成年人	1	1	1	66	1	0.417875968992248	0.04513136689234	0.835751937984496	-1	1	FALSE	-0.164248062015504	1	0.85	-0.250370503679946	7.90044400723415
0.85	49 mentors	a billionaire	cMorals	dtty169	Female	23	cMorals1	98	1	1	98	key	500	d	7.72015108736537	No	1_1	49位导师	1位亿万富翁	1	1	1	98	1	0.570431034482759	0.0459989301331309	0.859137931034483	1	0	TRUE	0.140862068965517	0	0.85	-0.180291945327272	7.90044303269264
0.85	a nun	48 homeless adults	cMorals	dtty169	Female	23	cMorals1	49	1	1	49	key	500	d	8.16596055407163	No	1_1	1位修女	48个流浪的人	1	1	1	49	1	0.563834710743802	0.0470379494866383	0.872330578512397	-1	1	FALSE	-0.127669421487603	1	0.85	0.265476657444682	7.90048389662695
0.85	48 nuns	5 celebrities	cMorals	dtty169	Female	23	cMorals1	75	1	1	75	key	500	k	7.4634204162345	Yes	1_1	48位修女	5个明星	1	1	1	75	1	0.570772357723577	0.043825612569311	0.858455284552845	1	1	TRUE	0.141544715447155	1	0.85	-0.437022750613655	7.90044316684815
0.85	a soldier	48 soldiers	cMorals	dtty169	Female	23	cMorals1	58	1	1	58	key	500	d	7.8832201695082	No	1_1	1位士兵	48位士兵	1	1	1	58	1	0.573194915254237	0.0438619860056702	0.853610169491525	-1	1	FALSE	-0.146389830508475	1	0.85	-0.0172285189313497	7.90044868843954
0.85	47 university students	8 billionaires	cMorals	dtty169	Female	23	cMorals1	53	1	1	53	key	500	k	8.35789260689496	Yes	1_1	47位大学生	8位亿万富翁	1	1	1	53	1	0.596288	0.0443862951731635	0.807424	1	1	TRUE	0.192576	1	0.85	0.457432605781662	7.9004600011133
0.85	6 elderly people	5 astronauts	cMorals	dtty169	Female	23	cMorals1	8	1	1	8	key	500	d	8.7687920237005	No	1_1	6个老人	5位宇航员	1	1	1	8	1	0.428172131147541	0.0458343323119567	0.856344262295082	1	0	TRUE	0.143655737704918	0	0.85	0.534439091432267	8.23435293226823
0.85	48 homeless adults	a nun	cMorals	dtty169	Female	23	cMorals1	81	1	1	81	key	500	k	8.21900276576627	Yes	1_1	48个流浪的人	1位修女	1	1	1	81	1	0.563834710743802	0.0470379494866383	0.872330578512397	1	1	TRUE	0.127669421487603	1	0.85	0.318559697806458	7.90044306795981
0.85	an astronaut	a nun	cMorals	dtty169	Female	23	cMorals1	52	1	1	52	key	500	d	8.33336650247325	No	1_1	1位宇航员	1位修女	1	1	1	52	1	0.415007874015748	0.0433842704623347	0.830015748031496	1	0	TRUE	0.169984251968504	0	0.85	0.432902331617826	7.90046417085542
0.85	a nun	an astronaut	cMorals	dtty169	Female	23	cMorals1	32	1	1	32	key	500	d	7.69997826773817	No	1_1	1位修女	1位宇航员	1	1	1	32	1	0.415007874015748	0.0433842704623347	0.830015748031496	-1	1	FALSE	-0.169984251968504	1	0.85	-0.202176805251248	7.90215507298941
0.85	5 orphans	52 billionaires	cMorals	dtty169	Female	23	cMorals1	18	1	1	18	key	500	d	8.6464831016521	No	1_1	5个孤儿	52位亿万富翁	1	1	1	18	1	0.569857142857143	0.0432612550353412	0.860285714285714	1	0	TRUE	0.139714285714286	0	0.85	0.708936587385857	7.93754651426624
0.85	49 celebrities	48 homeless adults	cMorals	dtty169	Female	23	cMorals1	7	1	1	7	key	500	d	8.2630748358026	No	1_1	49个明星	48个流浪的人	1	1	1	7	1	0.552491803278689	0.0453089215278561	0.895016393442623	-1	1	FALSE	-0.104983606557377	1	0.85	-0.053327419109273	8.31640225491187
0.85	49 hooligans	a convict	cMorals	dtty169	Female	23	cMorals1	107	1	1	107	key	500	k	7.71686161069906	Yes	1_1	49个流氓	1位罪犯	1	1	1	107	1	0.405261904761905	0.0439339120616665	0.81052380952381	-1	0	FALSE	-0.18947619047619	0	0.85	-0.183581421250572	7.90044303194963
0.95	a thief	7 convicts	cMorals	dtty169	Female	23	cMorals1	117	1	1	117	key	500	k	8.05410956365082	Yes	1_1	1个小偷	7位罪犯	1	1	1	117	1	0.52127731092437	0.0456748149843604	0.95744537815126	-1	0	FALSE	-0.04255462184874	0	0.95	0.153666531807296	7.90044303184352
0.95	47 olympians	5 mentors	cMorals	dtty169	Female	23	cMorals1	35	1	1	35	key	500	d	8.8439036508355	No	1_1	47名奥运选手	5位导师	1	1	1	35	1	0.511376068376068	0.0454043767717217	0.977247863247863	1	0	TRUE	0.0227521367521371	0	0.95	0.942574994113524	7.90132865672197
0.95	50 police officers	an astronaut	cMorals	dtty169	Female	23	cMorals1	106	1	1	106	key	500	k	7.60489448081162	Yes	1_1	50位警官	1位宇航员	1	1	1	106	1	0.547333333333333	0.047739273013632	0.905333333333333	1	1	TRUE	0.094666666666667	1	0.95	-0.295548551167346	7.90044303197897
0.95	a homeless adult	3 olympians	cMorals	dtty169	Female	23	cMorals1	30	1	1	30	key	500	d	7.71060851964616	No	1_1	1个流浪的人	3个奥运选手	1	1	1	30	1	0.52737037037037	0.0419792175978604	0.945259259259259	-1	1	FALSE	-0.054740740740741	1	0.95	-0.192491301559881	7.90309982120604
0.95	49 mentors	5 mentors	cMorals	dtty169	Female	23	cMorals1	77	1	1	77	key	500	k	7.82955083149548	Yes	1_1	49位导师	5位导师	1	1	1	77	1	0.508425	0.0443308099048272	0.98315	1	1	TRUE	0.01685	1	0.95	-0.0708922873406204	7.9004431188361
0.95	48 homeless adults	a billionaire	cMorals	dtty169	Female	23	cMorals1	83	1	1	83	key	500	k	7.76929411080758	Yes	1_1	48个流浪的人	1位亿万富翁	1	1	1	83	1	0.533181818181818	0.0477208264521611	0.933636363636364	1	1	TRUE	0.066363636363636	1	0.95	-0.13114894430465	7.90044305511223
0.95	a university student	a police officer	cMorals	dtty169	Female	23	cMorals1	119	1	1	119	key	500	d	7.95703725763665	No	1_1	1位大学生	1位警察	1	1	1	119	1	0.474166666666667	0.0425819809857563	0.948333333333333	-1	1	FALSE	-0.051666666666667	1	0.95	0.0565942257978458	7.90044303183881
0.95	a billionaire	a nun	cMorals	dtty169	Female	23	cMorals1	100	1	1	100	key	500	d	7.83217289805844	No	1_1	1位亿万富翁	1位修女	1	1	1	100	1	0.497904347826087	0.0468686536734542	0.995808695652174	-1	1	FALSE	-0.004191304347826	1	0.95	-0.0682701343275367	7.90044303238598
0.95	a homeless adult	4 nuns	cMorals	dtty169	Female	23	cMorals1	70	1	1	70	key	500	d	7.99145695492256	No	1_1	1个流浪的人	4位修女	1	1	1	70	1	0.515946153846154	0.0441867122839609	0.968107692307692	-1	1	FALSE	-0.031892307692308	1	0.95	0.0910135180516258	7.90044343687093
0.95	5 astronauts	47 olympians	cMorals	dtty169	Female	23	cMorals1	42	1	1	42	key	500	d	7.94605123165485	No	1_1	5位宇航员	47名奥运选手	1	1	1	42	1	0.515546218487395	0.0456860524044147	0.96890756302521	-1	1	FALSE	-0.03109243697479	1	0.95	0.0454179608140244	7.90063327084083
0.95	4 nuns	4 homeless adults	cMorals	dtty169	Female	23	cMorals1	65	1	1	65	key	500	k	7.99203196888691	Yes	1_1	4位修女	4个流浪的人	1	1	1	65	1	0.54835	0.0451464793032898	0.9033	-1	0	FALSE	-0.0967	0	0.95	0.0915877219736467	7.90044424691326
0.95	6 police officers	an adult	cMorals	dtty169	Female	23	cMorals1	55	1	1	55	key	500	d	8.84724486023281	No	1_1	6位警察	1位成年人	1	1	1	55	1	0.524016666666667	0.0455429772180629	0.951966666666667	1	0	TRUE	0.048033333333333	0	0.95	0.946790893357699	7.90045396687512
0.95	a homeless adult	a billionaire	cMorals	dtty169	Female	23	cMorals1	56	1	1	56	key	500	d	8.50475617131014	No	1_1	1个流浪的人	1位亿万富翁	1	1	1	56	1	0.4965	0.0462213607758334	0.993	1	0	TRUE	0.00700000000000001	0	0.95	0.604304361408529	7.90045180990161
0.95	6 police officers	49 astronauts	cMorals	dtty169	Female	23	cMorals1	50	1	1	50	key	500	d	7.91589566448617	No	1_1	6位警察	49位宇航员	1	1	1	50	1	0.512082644628099	0.0461344475348837	0.975834710743802	-1	1	FALSE	-0.024165289256198	1	0.95	0.015419828574557	7.90047583591161
0.95	6 elderly people	an orphan	cMorals	dtty169	Female	23	cMorals1	91	1	1	91	key	500	d	8.50281025104153	No	1_1	6个老人	1个孤儿	1	1	1	91	1	0.486626016260163	0.0456368370861986	0.973252032520325	-1	1	FALSE	-0.026747967479675	1	0.95	0.602367215196616	7.90044303584491
0.95	6 addicts	50 addicts	cMorals	dtty169	Female	23	cMorals1	31	1	1	31	key	500	d	8.00162299662348	No	1_1	6位瘾君子	50个瘾君子	1	1	1	31	1	0.471632	0.0434344463200249	0.943264	1	0	TRUE	0.056736	0	0.95	0.099047235845946	7.90257576077754
0.95	53 adults	49 astronauts	cMorals	dtty169	Female	23	cMorals1	93	1	1	93	key	500	d	7.40725702900222	No	1_1	53位成年人	49位宇航员	1	1	1	93	1	0.470581967213115	0.0455393680934955	0.941163934426229	1	0	TRUE	0.058836065573771	0	0.95	-0.493186005415095	7.90044303441731
0.95	7 convicts	a convict	cMorals	dtty169	Female	23	cMorals1	33	1	1	33	key	500	k	8.32474856884841	Yes	1_1	7位罪犯	1位罪犯	1	1	1	33	1	0.455387596899225	0.0452051530014001	0.91077519379845	-1	0	FALSE	-0.08922480620155	0	0.95	0.422931201599488	7.90181736724892
0.95	53 judges	9 judges	cMorals	dtty169	Female	23	cMorals1	95	1	1	95	key	500	k	7.63244957502289	Yes	1_1	53位法官	9个法官	1	1	1	95	1	0.548406504065041	0.0439604563360278	0.903186991869919	1	1	TRUE	0.096813008130081	1	0.95	-0.267993458474475	7.90044303349736
0.95	a soldier	47 university students	cMorals	dtty169	Female	23	cMorals1	11	1	1	11	key	500	d	7.95875171370858	No	1_1	1位士兵	47位大学生	1	1	1	11	1	0.466588235294118	0.045175648630356	0.933176470588235	1	0	TRUE	0.066823529411765	0	0.95	-0.114420179128123	8.07317189283671
0.95	a police officer	6 police officers	cMorals	dtty169	Female	23	cMorals1	3	1	1	3	key	500	d	8.26137147770529	No	1_1	1位警察	6位警察	1	1	1	3	1	0.507469230769231	0.0452322970279228	0.985061538461538	-1	1	FALSE	-0.014938461538462	1	0.95	-0.640769094758896	8.90214057246418
0.95	50 elderly people	47 olympians	cMorals	dtty169	Female	23	cMorals1	120	1	1	120	key	500	d	7.8074693744418	No	1_1	50位老人	47名奥运选手	1	1	1	120	1	0.46050406504065	0.0460954688890072	0.921008130081301	1	0	TRUE	0.078991869918699	0	0.95	-0.0929736573953264	7.90044303183712
0.05	9 rapists	6 elderly people	cMorals	wgsr277	Female	21	cMorals1	36	1	1	36	key	500	d	7.90844230482602	No	1_1	9个强奸犯	6个老人	1	1	1	36	1	0.959737704918033	0.0178850449587835	0.0805245901639344	-1	1	FALSE	-0.919475409836066	1	0.05	0.0711911118093145	7.83725119301671
0.05	an elderly person	8 terrorists	cMorals	wgsr277	Female	21	cMorals1	2	1	1	2	key	500	k	8.87894671749778	Yes	1_1	1位老人	8位恐怖分子	1	1	1	2	1	0.0423305084745763	0.0183051644706374	0.0846610169491525	1	1	TRUE	0.915338983050847	1	0.05	1.08003753500891	7.79890918248887
0.05	5 mentors	a rapist	cMorals	wgsr277	Female	21	cMorals1	54	1	1	54	key	500	k	8.14932440092039	Yes	1_1	5位导师	1位强奸犯	1	1	1	54	1	0.950861788617886	0.0198247494159477	0.0982764227642277	1	1	TRUE	0.901723577235772	1	0.05	0.291698241246415	7.85762615967397
0.05	a rapist	48 soldiers	cMorals	wgsr277	Female	21	cMorals1	34	1	1	34	key	500	d	7.76603546934725	No	1_1	1位强奸犯	48位士兵	1	1	1	34	1	0.957717741935484	0.0180525629411345	0.0845645161290323	-1	1	FALSE	-0.915435483870968	1	0.05	-0.0689551022691459	7.8349905716164
0.05	an elderly person	a pedophile	cMorals	wgsr277	Female	21	cMorals1	1	1	1	1	key	500	k	7.76293839741751	Yes	1_1	1位老人	1位恋童癖的人	1	1	1	1	1	0.0331157024793388	0.0160652520975969	0.0662314049586776	1	1	TRUE	0.933768595041322	1	0.05	-0.034845923043969	7.79778432046148
0.05	a pedophile	4 homeless adults	cMorals	wgsr277	Female	21	cMorals1	8	1	1	8	key	500	d	8.07405581070239	No	1_1	1位恋童癖的人	4个流浪的人	1	1	1	8	1	0.957603305785124	0.0181101176427491	0.084793388429752	-1	1	FALSE	-0.915206611570248	1	0.05	0.268394047645649	7.80566176305674
0.15	49 orphans	6 thieves	cMorals	wgsr277	Female	21	cMorals1	33	1	1	33	key	500	k	8.25933266985725	Yes	1_1	49个孤儿	6个小偷	1	1	1	33	1	0.915826446280992	0.0252818726502362	0.168347107438017	1	1	TRUE	0.831652892561983	1	0.15	0.425472164404308	7.83386050545294
0.15	3 pedophiles	50 police officers	cMorals	wgsr277	Female	21	cMorals1	99	1	1	99	key	500	d	7.61790705835759	No	1_1	3个恋童癖	50位警官	1	1	1	99	1	0.0847079646017699	0.0255246999779028	0.16941592920354	-1	1	FALSE	-0.83058407079646	1	0.15	-0.290888563085857	7.90879562144344
0.15	a rapist	48 homeless adults	cMorals	wgsr277	Female	21	cMorals1	27	1	1	27	key	500	d	8.4213087467542	No	1_1	1位强奸犯	48个流浪的人	1	1	1	27	1	0.923209677419355	0.0230448846094972	0.15358064516129	-1	1	FALSE	-0.84641935483871	1	0.15	0.594225216249225	7.82708353050497
0.15	3 pedophiles	an olympian	cMorals	wgsr277	Female	21	cMorals1	117	1	1	117	key	500	d	7.42265160618102	No	1_1	3个恋童癖	1位奥运选手	1	1	1	117	1	0.086078947368421	0.025957780830433	0.172157894736842	-1	1	FALSE	-0.827842105263158	1	0.15	-0.506704980212691	7.92935658639371
0.15	a rapist	47 olympians	cMorals	wgsr277	Female	21	cMorals1	103	1	1	103	key	500	d	7.54885098307104	No	1_1	1位强奸犯	47名奥运选手	1	1	1	103	1	0.943031496062992	0.0204793137154552	0.113937007874016	-1	1	FALSE	-0.886062992125984	1	0.15	-0.364509129355126	7.91336011242617
0.15	48 soldiers	6 thieves	cMorals	wgsr277	Female	21	cMorals1	70	1	1	70	key	500	k	8.21530265511606	Yes	1_1	48位士兵	6个小偷	1	1	1	70	1	0.918435897435897	0.0252634419584907	0.163128205128205	1	1	TRUE	0.836871794871795	1	0.15	0.339520949598104	7.87578170551795
0.15	9 judges	47 pedophiles	cMorals	wgsr277	Female	21	cMorals1	53	1	1	53	key	500	k	8.54625478269038	Yes	1_1	9个法官	47个恋童癖	1	1	1	53	1	0.0954347826086957	0.0268326704583079	0.190869565217391	1	1	TRUE	0.809130434782609	1	0.15	0.689761953984316	7.85649282870606
0.15	47 pedophiles	5 astronauts	cMorals	wgsr277	Female	21	cMorals1	68	1	1	68	key	500	d	8.03086991823805	No	1_1	47个恋童癖	5位宇航员	1	1	1	68	1	0.061728813559322	0.0220959721166379	0.123457627118644	-1	1	FALSE	-0.876542372881356	1	0.15	0.157359948081028	7.87350997015702
0.15	a billionaire	47 pedophiles	cMorals	wgsr277	Female	21	cMorals1	23	1	1	23	key	500	k	8.16917212302258	Yes	1_1	1位亿万富翁	47个恋童癖	1	1	1	23	1	0.0882432432432432	0.0273645607830971	0.176486486486486	1	1	TRUE	0.823513513513514	1	0.15	0.346603318460629	7.82256880456195
0.15	a pedophile	49 astronauts	cMorals	wgsr277	Female	21	cMorals1	78	1	1	78	key	500	d	8.3216587273517	No	1_1	1位恋童癖的人	49位宇航员	1	1	1	78	1	0.946637096774194	0.0202716810579577	0.106725806451613	-1	1	FALSE	-0.893274193548387	1	0.15	0.436783523884958	7.88487520346675
0.15	a rapist	49 astronauts	cMorals	wgsr277	Female	21	cMorals1	35	1	1	35	key	500	d	7.55493966958314	No	1_1	1位强奸犯	49位宇航员	1	1	1	35	1	0.939277777777778	0.021343793837168	0.121444444444444	-1	1	FALSE	-0.878555555555556	1	0.15	-0.281181131213342	7.83612080079648
0.15	9 rapists	9 adults	cMorals	wgsr277	Female	21	cMorals1	37	1	1	37	key	500	d	7.71665231858181	No	1_1	9个强奸犯	9位成年人	1	1	1	37	1	0.940479338842975	0.0206238066089988	0.11904132231405	-1	1	FALSE	-0.88095867768595	1	0.15	-0.121729429718791	7.8383817483006
0.25	a hooligan	a police officer	cMorals	wgsr277	Female	21	cMorals1	85	1	1	85	key	500	d	8.07911449495885	No	1_1	1个流氓	1位警察	1	1	1	85	1	0.141755905511811	0.0312795429421445	0.283511811023622	-1	1	FALSE	-0.716488188976378	1	0.25	0.186273868336811	7.89284062662203
0.25	a hooligan	an adult	cMorals	wgsr277	Female	21	cMorals1	13	1	1	13	key	500	d	8.31003740200503	No	1_1	1个流氓	1位成年人	1	1	1	13	1	0.12825641025641	0.0297358129975781	0.256512820512821	-1	1	FALSE	-0.743487179487179	1	0.25	0.498744022513366	7.81129337949167
0.25	5 orphans	7 assassins	cMorals	wgsr277	Female	21	cMorals1	72	1	1	72	key	500	k	8.30689305916219	Yes	1_1	5个孤儿	7位刺客	1	1	1	72	1	0.855059322033898	0.0323268618041826	0.289881355932203	1	1	TRUE	0.710118644067797	1	0.25	0.42883896282194	7.87805409634024
0.25	49 astronauts	a thief	cMorals	wgsr277	Female	21	cMorals1	44	1	1	44	key	500	d	6.96140978352193	No	1_1	49位宇航员	1个小偷	1	1	1	44	1	0.880327731092437	0.0297975805200829	0.239344537815126	1	0	TRUE	0.760655462184874	0	0.25	-0.884890419524846	7.84630020304678
0.25	52 billionaires	8 terrorists	cMorals	wgsr277	Female	21	cMorals1	45	1	1	45	key	500	k	7.85665646275394	Yes	1_1	52位亿万富翁	8位恐怖分子	1	1	1	45	1	0.8794	0.0275544415157928	0.2412	1	1	TRUE	0.7588	1	0.25	0.00922439906685657	7.84743206368708
0.25	an adult	an assassin	cMorals	wgsr277	Female	21	cMorals1	28	1	1	28	key	500	k	7.77581958775018	Yes	1_1	1位成年人	1位刺客	1	1	1	28	1	0.891520325203252	0.028587052304085	0.216959349593496	1	1	TRUE	0.783040650406504	1	0.25	-0.0523930313121097	7.82821261906229
0.25	a thief	5 mentors	cMorals	wgsr277	Female	21	cMorals1	42	1	1	42	key	500	d	6.97973169527225	No	1_1	1个小偷	5位导师	1	1	1	42	1	0.877456896551724	0.0302081734570764	0.245086206896552	-1	1	FALSE	-0.754913793103448	1	0.25	-0.864305276226196	7.84403697149844
0.25	5 astronauts	a hooligan	cMorals	wgsr277	Female	21	cMorals1	32	1	1	32	key	500	k	7.74028172001281	Yes	1_1	5位宇航员	1个流氓	1	1	1	32	1	0.857728813559322	0.0323631625748206	0.284542372881356	1	1	TRUE	0.715457627118644	1	0.25	-0.0924488822697898	7.8327306022826
0.25	a pedophile	52 billionaires	cMorals	wgsr277	Female	21	cMorals1	106	1	1	106	key	500	d	8.38952117052542	No	1_1	1位恋童癖的人	52位亿万富翁	1	1	1	106	1	0.8959453125	0.0265634188717445	0.208109375	-1	1	FALSE	-0.791890625	1	0.25	0.472735961149655	7.91678520937577
0.25	51 assassins	a soldier	cMorals	wgsr277	Female	21	cMorals1	97	1	1	97	key	500	d	8.01262958688454	No	1_1	51位刺客	1位士兵	1	1	1	97	1	0.140443548387097	0.0303604644395498	0.280887096774194	-1	1	FALSE	-0.719112903225806	1	0.25	0.106115223524091	7.90651436336045
0.25	4 soldiers	a convict	cMorals	wgsr277	Female	21	cMorals1	5	1	1	5	key	500	k	7.33206176822101	Yes	1_1	4位士兵	1位罪犯	1	1	1	5	1	0.879781954887218	0.0280530737151864	0.240436090225564	1	1	TRUE	0.759563909774436	1	0.25	-0.470222974039139	7.80228474226015
0.25	8 terrorists	52 billionaires	cMorals	wgsr277	Female	21	cMorals1	48	1	1	48	key	500	d	7.58739413151147	No	1_1	8位恐怖分子	52位亿万富翁	1	1	1	48	1	0.8794	0.0275544415157928	0.2412	-1	1	FALSE	-0.7588	1	0.25	-0.263434493843691	7.85082862535516
0.25	52 billionaires	a rapist	cMorals	wgsr277	Female	21	cMorals1	94	1	1	94	key	500	k	8.02498321625793	Yes	1_1	52位亿万富翁	1位强奸犯	1	1	1	94	1	0.878207692307692	0.028524734270435	0.243584615384615	1	1	TRUE	0.756415384615385	1	0.25	0.121889506295505	7.90309370996242
0.25	6 thieves	a university student	cMorals	wgsr277	Female	21	cMorals1	39	1	1	39	key	500	d	7.51650946976847	No	1_1	6个小偷	1位大学生	1	1	1	39	1	0.114957627118644	0.0298543158864135	0.229915254237288	-1	1	FALSE	-0.770084745762712	1	0.25	-0.324133878385007	7.84064334815347
0.25	49 astronauts	7 assassins	cMorals	wgsr277	Female	21	cMorals1	30	1	1	30	key	500	k	8.10904598971055	Yes	1_1	49位宇航员	7位刺客	1	1	1	30	1	0.859869565217391	0.0326195307759224	0.280260869565217	1	1	TRUE	0.719739130434783	1	0.25	0.278574704883301	7.83047128482725
0.35	51 convicts	49 orphans	cMorals	wgsr277	Female	21	cMorals1	110	1	1	110	key	500	d	8.01273061379641	No	1_1	51个罪犯	49个孤儿	1	1	1	110	1	0.831763157894737	0.0358874826499334	0.336473684210526	-1	1	FALSE	-0.663526315789474	1	0.35	0.0913763023183742	7.92135431147804
0.35	49 astronauts	7 convicts	cMorals	wgsr277	Female	21	cMorals1	15	1	1	15	key	500	k	7.84024607828715	Yes	1_1	49位宇航员	7位罪犯	1	1	1	15	1	0.8238	0.0335010628204388	0.3524	1	1	TRUE	0.6476	1	0.35	0.0266989147205168	7.81354716356663
0.35	6 police officers	51 assassins	cMorals	wgsr277	Female	21	cMorals1	83	1	1	83	key	500	k	7.81378757254247	Yes	1_1	6位警察	51位刺客	1	1	1	83	1	0.181728	0.0352878910003311	0.363456	1	1	TRUE	0.636544	1	0.35	-0.0767763981462117	7.89056397068868
0.35	49 hooligans	an olympian	cMorals	wgsr277	Female	21	cMorals1	113	1	1	113	key	500	d	8.7455574908789	No	1_1	49个流氓	1位奥运选手	1	1	1	113	1	0.191486486486486	0.0364841233528751	0.382972972972973	-1	1	FALSE	-0.617027027027027	1	0.35	0.82077462236523	7.92478286851367
0.35	an orphan	51 convicts	cMorals	wgsr277	Female	21	cMorals1	98	1	1	98	key	500	k	7.49986868115545	Yes	1_1	1个孤儿	51个罪犯	1	1	1	98	1	0.185428571428571	0.035571195549348	0.370857142857143	1	1	TRUE	0.629142857142857	1	0.35	-0.407786228982249	7.9076549101377
0.35	a billionaire	a thief	cMorals	wgsr277	Female	21	cMorals1	100	1	1	100	key	500	k	8.26754779809168	Yes	1_1	1位亿万富翁	1个小偷	1	1	1	100	1	0.801189189189189	0.0380338116709955	0.397621621621622	1	1	TRUE	0.602378378378378	1	0.35	0.357611300790253	7.90993649730143
0.35	7 convicts	a police officer	cMorals	wgsr277	Female	21	cMorals1	75	1	1	75	key	500	d	8.10177016742524	No	1_1	7位罪犯	1位警察	1	1	1	75	1	0.1853203125	0.0351140027062873	0.370640625	-1	1	FALSE	-0.629359375	1	0.35	0.220306255447792	7.88146391197744
0.35	52 billionaires	an assassin	cMorals	wgsr277	Female	21	cMorals1	60	1	1	60	key	500	k	7.58081199082025	Yes	1_1	52位亿万富翁	1位刺客	1	1	1	60	1	0.815546875	0.0337881408875438	0.36890625	1	1	TRUE	0.63109375	1	0.35	-0.283617588726151	7.86442957954641
0.35	a convict	6 police officers	cMorals	wgsr277	Female	21	cMorals1	92	1	1	92	key	500	d	8.46167836731726	No	1_1	1位罪犯	6位警察	1	1	1	92	1	0.820361538461538	0.033382509880631	0.359276923076923	-1	1	FALSE	-0.640723076923077	1	0.35	0.560864270745993	7.90081409657127
0.35	a homeless adult	6 thieves	cMorals	wgsr277	Female	21	cMorals1	4	1	1	4	key	500	d	7.79358680337278	No	1_1	1个流浪的人	6个小偷	1	1	1	4	1	0.171291338582677	0.0346302997644922	0.342582677165354	1	0	TRUE	0.657417322834646	0	0.35	-0.00757258999201138	7.8011593933648
0.35	a convict	a university student	cMorals	wgsr277	Female	21	cMorals1	96	1	1	96	key	500	d	8.0412825500774	No	1_1	1位罪犯	1位大学生	1	1	1	96	1	0.811385826771653	0.0364008307029768	0.377228346456693	-1	1	FALSE	-0.622771653543307	1	0.35	0.135908568989432	7.90537398108797
0.35	an olympian	a convict	cMorals	wgsr277	Female	21	cMorals1	101	1	1	101	key	500	k	7.50191879072803	Yes	1_1	1位奥运选手	1位罪犯	1	1	1	101	1	0.187674796747967	0.0351945986131912	0.375349593495935	1	1	TRUE	0.624650406504065	1	0.35	-0.409158747007348	7.91107753773538
0.45	49 mentors	a convict	cMorals	wgsr277	Female	21	cMorals1	20	1	1	20	key	500	k	7.8407339887465	Yes	1_1	49位导师	1位罪犯	1	1	1	20	1	0.798325757575758	0.034657155341952	0.403348484848485	1	1	TRUE	0.596651515151515	1	0.45	0.0215495195987305	7.81918446914777
0.45	48 soldiers	an olympian	cMorals	wgsr277	Female	21	cMorals1	22	1	1	22	key	500	d	7.99340390125878	No	1_1	48位士兵	1位奥运选手	1	1	1	22	1	0.750540540540541	0.0404644672378691	0.498918918918919	1	0	TRUE	0.501081081081081	0	0.45	0.171963371228431	7.82144053003035
0.45	5 mentors	an addict	cMorals	wgsr277	Female	21	cMorals1	11	1	1	11	key	500	k	7.62954093549539	Yes	1_1	5位导师	1位瘾君子	1	1	1	11	1	0.763377192982456	0.0410299956836801	0.473245614035088	1	1	TRUE	0.526754385964912	1	0.45	-0.179499310015637	7.80904024551103
0.45	51 assassins	a billionaire	cMorals	wgsr277	Female	21	cMorals1	14	1	1	14	key	500	k	8.14251283279632	Yes	1_1	51位刺客	1位亿万富翁	1	1	1	14	1	0.231362068965517	0.0382582394305212	0.462724137931035	-1	0	FALSE	-0.537275862068965	0	0.45	0.330092642540679	7.81242019025564
0.45	52 billionaires	49 hooligans	cMorals	wgsr277	Female	21	cMorals1	89	1	1	89	key	500	d	7.85748272117695	No	1_1	52位亿万富翁	49个流氓	1	1	1	89	1	0.208181818181818	0.037979697410723	0.416363636363636	1	0	TRUE	0.583636363636364	0	0.45	-0.0399131881445882	7.89739590932154
0.45	an addict	5 orphans	cMorals	wgsr277	Female	21	cMorals1	80	1	1	80	key	500	d	7.96741535178023	No	1_1	1位瘾君子	5个孤儿	1	1	1	80	1	0.775672268907563	0.0382428524117636	0.448655462184874	-1	1	FALSE	-0.551344537815126	1	0.45	0.0802651337540103	7.88715021802622
0.45	an olympian	7 convicts	cMorals	wgsr277	Female	21	cMorals1	62	1	1	62	key	500	k	7.30659515528721	Yes	1_1	1位奥运选手	7位罪犯	1	1	1	62	1	0.223368421052632	0.039884198118684	0.446736842105263	1	1	TRUE	0.553263157894737	1	0.45	-0.560103539664798	7.866698694952
0.45	a billionaire	50 thieves	cMorals	wgsr277	Female	21	cMorals1	108	1	1	108	key	500	k	7.72764083175818	Yes	1_1	1位亿万富翁	50个小偷	1	1	1	108	1	0.220657894736842	0.038544905003116	0.441315789473684	1	1	TRUE	0.558684210526316	1	0.45	-0.191428599136734	7.91906943089491
0.55	48 nuns	51 convicts	cMorals	wgsr277	Female	21	cMorals1	26	1	1	26	key	500	k	8.0749961505718	Yes	1_1	48位修女	51个罪犯	1	1	1	26	1	0.725645454545455	0.0432937674580757	0.548709090909091	1	1	TRUE	0.451290909090909	1	0.55	0.249041545772035	7.82595460479976
0.55	51 convicts	9 judges	cMorals	wgsr277	Female	21	cMorals1	25	1	1	25	key	500	d	7.62980084958615	No	1_1	51个罪犯	9个法官	1	1	1	25	1	0.291880733944954	0.0425299028023402	0.583761467889908	-1	1	FALSE	-0.416238532110092	1	0.55	-0.195024992337031	7.82482584192318
0.55	a terrorist	a thief	cMorals	wgsr277	Female	21	cMorals1	74	1	1	74	key	500	d	8.23128820567355	No	1_1	1位恐怖分子	1个小偷	1	1	1	74	1	0.266559322033898	0.039772686040332	0.533118644067797	-1	1	FALSE	-0.466881355932203	1	0.55	0.350961062860539	7.88032714281302
0.55	a nun	4 soldiers	cMorals	wgsr277	Female	21	cMorals1	58	1	1	58	key	500	d	7.44449131011577	No	1_1	1位修女	4位士兵	1	1	1	58	1	0.71907874015748	0.0407242849292757	0.561842519685039	-1	1	FALSE	-0.438157480314961	1	0.55	-0.417669808541612	7.86216111865739
0.55	52 billionaires	5 hooligans	cMorals	wgsr277	Female	21	cMorals1	29	1	1	29	key	500	k	7.67471735303744	Yes	1_1	52位亿万富翁	5个流氓	1	1	1	29	1	0.252015384615385	0.0380468566763132	0.504030769230769	1	1	TRUE	0.495969230769231	1	0.55	-0.154624517457775	7.82934187049522
0.55	an assassin	53 rapists	cMorals	wgsr277	Female	21	cMorals1	105	1	1	105	key	500	k	8.56180989690453	Yes	1_1	1位刺客	53个强奸犯	1	1	1	105	1	0.256925619834711	0.0410477863631091	0.513851239669421	1	1	TRUE	0.486148760330579	1	0.55	0.646166551198759	7.91564334570578
0.65	52 billionaires	an addict	cMorals	wgsr277	Female	21	cMorals1	19	1	1	19	key	500	k	7.96235820720316	Yes	1_1	52位亿万富翁	1位瘾君子	1	1	1	19	1	0.663512396694215	0.0416394115664315	0.67297520661157	1	1	TRUE	0.32702479338843	1	0.65	0.144301524453294	7.81805668274987
0.65	5 celebrities	50 police officers	cMorals	wgsr277	Female	21	cMorals1	57	1	1	57	key	500	d	9.61555444857849	No	1_1	5个明星	50位警官	1	1	1	57	1	0.33027731092437	0.0430900611607985	0.660554621848739	-1	1	FALSE	-0.339445378151261	1	0.65	1.75452731498089	7.86102713359759
0.65	a police officer	5 celebrities	cMorals	wgsr277	Female	21	cMorals1	50	1	1	50	key	500	d	7.79395786853983	No	1_1	1位警察	5个明星	1	1	1	50	1	0.34939552238806	0.0400719669425428	0.698791044776119	1	0	TRUE	0.301208955223881	0	0.65	-0.0591359479522442	7.85309381649208
0.65	9 rapists	5 hooligans	cMorals	wgsr277	Female	21	cMorals1	31	1	1	31	key	500	d	7.51900616002724	No	1_1	9个强奸犯	5个流氓	1	1	1	31	1	0.68248	0.0417237398907441	0.63504	-1	1	FALSE	-0.36496	1	0.65	-0.312594702054635	7.83160086208187
0.65	an assassin	8 terrorists	cMorals	wgsr277	Female	21	cMorals1	91	1	1	91	key	500	d	7.88326164050922	No	1_1	1位刺客	8位恐怖分子	1	1	1	91	1	0.30415873015873	0.0403428107894389	0.60831746031746	1	0	TRUE	0.39168253968254	0	0.65	-0.0164128959575782	7.8996745364668
0.65	a mentor	6 addicts	cMorals	wgsr277	Female	21	cMorals1	52	1	1	52	key	500	k	7.8830976314509	Yes	1_1	1位导师	6位瘾君子	1	1	1	52	1	0.312806451612903	0.0395943606461408	0.625612903225806	1	1	TRUE	0.374387096774194	1	0.65	0.0277379702487401	7.85535966120216
0.65	a pedophile	6 thieves	cMorals	wgsr277	Female	21	cMorals1	114	1	1	114	key	500	d	7.95825167610999	No	1_1	1位恋童癖的人	6个小偷	1	1	1	114	1	0.658887096774194	0.0418673051141657	0.682225806451613	-1	1	FALSE	-0.317774193548387	1	0.65	0.0323256255130797	7.92592605059691
0.65	6 elderly people	a homeless adult	cMorals	wgsr277	Female	21	cMorals1	76	1	1	76	key	500	k	9.20136723351472	Yes	1_1	6个老人	1个流浪的人	1	1	1	76	1	0.662198473282443	0.040507426729224	0.675603053435115	1	1	TRUE	0.324396946564885	1	0.65	1.31876638838928	7.88260084512544
0.75	47 university students	an astronaut	cMorals	wgsr277	Female	21	cMorals1	118	1	1	118	key	500	d	7.51288785220764	No	1_1	47位大学生	1位宇航员	1	1	1	118	1	0.62249593495935	0.0440188353331905	0.755008130081301	1	0	TRUE	0.244991869918699	0	0.75	-0.417612576046668	7.93050042825431
0.75	50 elderly people	a celebrity	cMorals	wgsr277	Female	21	cMorals1	69	1	1	69	key	500	d	7.2161292890501	No	1_1	50位老人	1个明星	1	1	1	69	1	0.643869565217391	0.0472603003953676	0.712260869565217	1	0	TRUE	0.287739130434783	0	0.75	-0.65851646686653	7.87464575591663
0.75	53 adults	a billionaire	cMorals	wgsr277	Female	21	cMorals1	116	1	1	116	key	500	d	7.83395673696062	No	1_1	53位成年人	1位亿万富翁	1	1	1	116	1	0.606122807017544	0.0470040478053584	0.787754385964912	1	0	TRUE	0.212245614035088	0	0.75	-0.0942561725525168	7.92821290951314
0.75	9 judges	5 mentors	cMorals	wgsr277	Female	21	cMorals1	3	1	1	3	key	500	d	7.6750516808494	No	1_1	9个法官	5位导师	1	1	1	3	1	0.609442477876106	0.0455281815657862	0.781115044247788	-1	1	FALSE	-0.218884955752212	1	0.75	-0.124982525932777	7.80003420678217
0.75	47 university students	4 homeless adults	cMorals	wgsr277	Female	21	cMorals1	86	1	1	86	key	500	k	7.91052091063572	Yes	1_1	47位大学生	4个流浪的人	1	1	1	86	1	0.394887931034483	0.0443108238025662	0.789775862068966	1	1	TRUE	0.210224137931034	1	0.75	0.0165417097284442	7.89397920090728
0.75	48 soldiers	6 elderly people	cMorals	wgsr277	Female	21	cMorals1	10	1	1	10	key	500	d	7.47306624711926	No	1_1	48位士兵	6个老人	1	1	1	10	1	0.631495867768595	0.0456678792505975	0.73700826446281	1	0	TRUE	0.26299173553719	0	0.75	-0.334847675128213	7.80791392224748
0.75	a pedophile	49 hooligans	cMorals	wgsr277	Female	21	cMorals1	71	1	1	71	key	500	d	7.42328183602706	No	1_1	1位恋童癖的人	49个流氓	1	1	1	71	1	0.626206611570248	0.0425865387820962	0.747586776859504	-1	1	FALSE	-0.252413223140496	1	0.75	-0.453635982957552	7.87691781898461
0.75	a soldier	50 police officers	cMorals	wgsr277	Female	21	cMorals1	63	1	1	63	key	500	d	7.39801486412822	No	1_1	1位士兵	50位警官	1	1	1	63	1	0.380300884955752	0.0437903879204947	0.760601769911504	1	0	TRUE	0.239398230088496	0	0.75	-0.469818634029307	7.86783349815753
0.75	a judge	47 olympians	cMorals	wgsr277	Female	21	cMorals1	55	1	1	55	key	500	d	8.64173113897489	No	1_1	1位法官	47名奥运选手	1	1	1	55	1	0.6195	0.0445041515860856	0.761	-1	1	FALSE	-0.239	1	0.75	0.782971484845411	7.85875965412948
0.75	49 celebrities	an elderly person	cMorals	wgsr277	Female	21	cMorals1	66	1	1	66	key	500	d	7.44973648770875	No	1_1	49个明星	1位老人	1	1	1	66	1	0.366561983471074	0.0420356240093053	0.733123966942149	-1	1	FALSE	-0.266876033057851	1	0.75	-0.421502402359637	7.87123889006838
0.75	6 addicts	a homeless adult	cMorals	wgsr277	Female	21	cMorals1	18	1	1	18	key	500	d	7.68232805673405	No	1_1	6位瘾君子	1个流浪的人	1	1	1	18	1	0.384015503875969	0.0432455863528143	0.768031007751938	-1	1	FALSE	-0.231968992248062	1	0.75	-0.134601002282206	7.81692905901626
0.85	51 assassins	a convict	cMorals	wgsr277	Female	21	cMorals1	17	1	1	17	key	500	k	7.90807644925956	Yes	1_1	51位刺客	1位罪犯	1	1	1	17	1	0.437840909090909	0.0442070128794017	0.875681818181818	-1	0	FALSE	-0.124318181818182	0	0.85	0.0922748513360663	7.81580159792349
0.85	5 orphans	5 astronauts	cMorals	wgsr277	Female	21	cMorals1	46	1	1	46	key	500	d	7.64426841544073	No	1_1	5个孤儿	5位宇航员	1	1	1	46	1	0.438148760330579	0.0464263517883954	0.876297520661157	1	0	TRUE	0.123702479338843	0	0.85	-0.204295672162151	7.84856408760288
0.85	a judge	a celebrity	cMorals	wgsr277	Female	21	cMorals1	90	1	1	90	key	500	d	7.44778333081466	No	1_1	1位法官	1个明星	1	1	1	90	1	0.421017857142857	0.0468028882071203	0.842035714285714	1	0	TRUE	0.157964285714286	0	0.85	-0.450751809910134	7.8985351407248
0.85	48 nuns	5 celebrities	cMorals	wgsr277	Female	21	cMorals1	59	1	1	59	key	500	k	8.04239408221073	Yes	1_1	48位修女	5个明星	1	1	1	59	1	0.570772357723577	0.043825612569311	0.858455284552845	1	1	TRUE	0.141544715447155	1	0.85	0.179098814911608	7.86329526729912
0.85	53 judges	9 adults	cMorals	wgsr277	Female	21	cMorals1	88	1	1	88	key	500	d	7.75254786092345	No	1_1	53位法官	9位成年人	1	1	1	88	1	0.418623076923077	0.0453549600136703	0.837246153846154	-1	1	FALSE	-0.162753846153846	1	0.85	-0.143708981309886	7.89625684223334
0.85	9 adults	3 olympians	cMorals	wgsr277	Female	21	cMorals1	120	1	1	120	key	500	d	7.5919752301419	No	1_1	9位成年人	3个奥运选手	1	1	1	120	1	0.405374045801527	0.0422833694531961	0.810748091603053	1	0	TRUE	0.189251908396947	0	0.85	-0.340813376868899	7.9327886070108
0.85	a terrorist	52 terrorists	cMorals	wgsr277	Female	21	cMorals1	82	1	1	82	key	500	k	7.9048976220492	Yes	1_1	1位恐怖分子	52个恐怖分子	1	1	1	82	1	0.40836974789916	0.0437797592561104	0.816739495798319	1	1	TRUE	0.183260504201681	1	0.85	0.0154717330560095	7.88942588899319
0.85	8 billionaires	53 adults	cMorals	wgsr277	Female	21	cMorals1	93	1	1	93	key	500	d	8.00398138965567	No	1_1	8位亿万富翁	53位成年人	1	1	1	93	1	0.580328125	0.0445360283709429	0.83934375	-1	1	FALSE	-0.16065625	1	0.85	0.10202756859377	7.9019538210619
0.85	4 homeless adults	an olympian	cMorals	wgsr277	Female	21	cMorals1	87	1	1	87	key	500	d	7.8313294223063	No	1_1	4个流浪的人	1位奥运选手	1	1	1	87	1	0.580189189189189	0.0476781808423069	0.839621621621622	1	0	TRUE	0.160378378378378	0	0.85	-0.0637885171301766	7.89511793943648
0.85	a university student	an elderly person	cMorals	wgsr277	Female	21	cMorals1	56	1	1	56	key	500	d	8.79013059351479	No	1_1	1位大学生	1位老人	1	1	1	56	1	0.414913043478261	0.0457489280748364	0.829826086956522	-1	1	FALSE	-0.170173913043478	1	0.85	0.930237281418633	7.85989331209615
0.85	49 mentors	a soldier	cMorals	wgsr277	Female	21	cMorals1	119	1	1	119	key	500	d	7.72590161846697	No	1_1	49位导师	1位士兵	1	1	1	119	1	0.418596774193548	0.0462526949309471	0.837193548387097	-1	1	FALSE	-0.162806451612903	1	0.85	-0.205742816651765	7.93164443511874
0.85	7 assassins	a pedophile	cMorals	wgsr277	Female	21	cMorals1	95	1	1	95	key	500	k	8.56247052615122	Yes	1_1	7位刺客	1位恋童癖的人	1	1	1	95	1	0.575084033613445	0.0445250091378938	0.849831932773109	1	1	TRUE	0.150168067226891	1	0.85	0.658236762854684	7.90423376329654
0.85	a homeless adult	4 homeless adults	cMorals	wgsr277	Female	21	cMorals1	65	1	1	65	key	500	d	7.70519715741923	No	1_1	1个流浪的人	4个流浪的人	1	1	1	65	1	0.59592	0.0443264981522163	0.80816	-1	1	FALSE	-0.19184	1	0.85	-0.164906438272878	7.87010359569211
0.85	a billionaire	5 celebrities	cMorals	wgsr277	Female	21	cMorals1	111	1	1	111	key	500	d	7.8235658956199	No	1_1	1位亿万富翁	5个明星	1	1	1	111	1	0.430694915254237	0.0473162918799509	0.861389830508475	1	0	TRUE	0.138610169491525	0	0.85	-0.0989311033581135	7.92249699897801
0.85	a thief	7 assassins	cMorals	wgsr277	Female	21	cMorals1	51	1	1	51	key	500	d	7.71755374389381	No	1_1	1个小偷	7位刺客	1	1	1	51	1	0.425131578947368	0.0472478865933029	0.850263157894737	1	0	TRUE	0.149736842105263	0	0.85	-0.136672913244878	7.85422665713869
0.85	47 university students	a university student	cMorals	wgsr277	Female	21	cMorals1	109	1	1	109	key	500	d	7.55002223772582	No	1_1	47位大学生	1位大学生	1	1	1	109	1	0.565598290598291	0.0464141636806269	0.868803418803419	1	0	TRUE	0.131196581196581	0	0.85	-0.370189551065774	7.92021178879159
0.85	6 police officers	a billionaire	cMorals	wgsr277	Female	21	cMorals1	81	1	1	81	key	500	d	7.95497075913355	No	1_1	6位警察	1位亿万富翁	1	1	1	81	1	0.573412280701754	0.0472479387598582	0.853175438596491	1	0	TRUE	0.146824561403509	0	0.85	0.0666827876866227	7.88828797144693
0.85	52 billionaires	49 astronauts	cMorals	wgsr277	Female	21	cMorals1	79	1	1	79	key	500	d	7.74093393080607	No	1_1	52位亿万富翁	49位宇航员	1	1	1	79	1	0.569725806451613	0.0463914931963219	0.860548387096774	-1	1	FALSE	-0.139451612903226	1	0.85	-0.145078697901305	7.88601262870738
0.85	49 mentors	4 homeless adults	cMorals	wgsr277	Female	21	cMorals1	61	1	1	61	key	500	k	7.42722443951869	Yes	1_1	49位导师	4个流浪的人	1	1	1	61	1	0.440289256198347	0.0473765239400614	0.880578512396694	1	1	TRUE	0.119421487603306	1	0.85	-0.438339615904137	7.86556405542283
0.95	an astronaut	4 nuns	cMorals	wgsr277	Female	21	cMorals1	24	1	1	24	key	500	d	8.0842140191646	No	1_1	1位宇航员	4位修女	1	1	1	24	1	0.475507936507936	0.0436817328281895	0.951015873015873	1	0	TRUE	0.048984126984127	0	0.95	0.260516777312866	7.82369724185174
0.95	47 university students	5 orphans	cMorals	wgsr277	Female	21	cMorals1	12	1	1	12	key	500	k	7.4427240961456	Yes	1_1	47位大学生	5个孤儿	1	1	1	12	1	0.516892561983471	0.0451317508240283	0.966214876033058	1	1	TRUE	0.033785123966942	1	0.95	-0.367442635105674	7.81016673125128
0.95	an astronaut	a billionaire	cMorals	wgsr277	Female	21	cMorals1	104	1	1	104	key	500	d	8.25573491641641	No	1_1	1位宇航员	1位亿万富翁	1	1	1	104	1	0.453991379310345	0.0450894109329882	0.90798275862069	1	0	TRUE	0.09201724137931	0	0.95	0.341233269685917	7.9145016467305
0.95	a mentor	5 astronauts	cMorals	wgsr277	Female	21	cMorals1	84	1	1	84	key	500	d	7.62121966030488	No	1_1	1位导师	5位宇航员	1	1	1	84	1	0.496413223140496	0.0462536570450317	0.992826446280992	1	0	TRUE	0.00717355371900796	0	0.95	-0.27048255625218	7.89170221655706
0.95	53 judges	an astronaut	cMorals	wgsr277	Female	21	cMorals1	115	1	1	115	key	500	d	7.80138927446054	No	1_1	53位法官	1位宇航员	1	1	1	115	1	0.493106870229008	0.043646023501985	0.986213740458015	-1	1	FALSE	-0.013786259541985	1	0.95	-0.125680123128259	7.9270693975888
0.95	a billionaire	4 nuns	cMorals	wgsr277	Female	21	cMorals1	77	1	1	77	key	500	d	7.98659333995313	No	1_1	1位亿万富翁	4位修女	1	1	1	77	1	0.492086956521739	0.046316304045512	0.984173913043478	1	0	TRUE	0.015826086956522	0	0.95	0.102855397672481	7.88373794228065
0.95	a police officer	a university student	cMorals	wgsr277	Female	21	cMorals1	9	1	1	9	key	500	k	8.35555857668085	Yes	1_1	1位警察	1位大学生	1	1	1	9	1	0.474166666666667	0.0425819809857563	0.948333333333333	1	1	TRUE	0.051666666666667	1	0.95	0.548770815243658	7.80678776143719
0.95	5 hooligans	7 assassins	cMorals	wgsr277	Female	21	cMorals1	6	1	1	6	key	500	k	7.3430509970551	Yes	1_1	5个流氓	7位刺客	1	1	1	6	1	0.54516393442623	0.0453038121681436	0.909672131147541	1	1	TRUE	0.090327868852459	1	0.95	-0.460359256436542	7.80341025349164
0.95	50 thieves	a thief	cMorals	wgsr277	Female	21	cMorals1	102	1	1	102	key	500	d	7.77612386984925	No	1_1	50个小偷	1个小偷	1	1	1	102	1	0.476900826446281	0.0448093750042418	0.953801652892562	-1	1	FALSE	-0.046198347107438	1	0.95	-0.13609487291979	7.91221874276904
0.95	48 homeless adults	a police officer	cMorals	wgsr277	Female	21	cMorals1	43	1	1	43	key	500	d	7.40875781379781	No	1_1	48个流浪的人	1位警察	1	1	1	43	1	0.483793650793651	0.0458711220853954	0.967587301587302	-1	1	FALSE	-0.032412698412698	1	0.95	-0.436410691860599	7.84516850565841
0.95	5 mentors	a mentor	cMorals	wgsr277	Female	21	cMorals1	49	1	1	49	key	500	d	7.72417484555056	No	1_1	5位导师	1位导师	1	1	1	49	1	0.494470588235294	0.0457784342866725	0.988941176470588	-1	1	FALSE	-0.011058823529412	1	0.95	-0.127786293688192	7.85196113923875
0.95	5 astronauts	5 mentors	cMorals	wgsr277	Female	21	cMorals1	67	1	1	67	key	500	d	7.28779659057841	No	1_1	5位宇航员	5位导师	1	1	1	67	1	0.473103448275862	0.0445634812225702	0.946206896551724	-1	1	FALSE	-0.053793103448276	1	0.95	-0.584577757637068	7.87237434821548
0.95	49 astronauts	an elderly person	cMorals	wgsr277	Female	21	cMorals1	64	1	1	64	key	500	d	7.44434513606791	No	1_1	49位宇航员	1位老人	1	1	1	64	1	0.482760683760684	0.0461228384537566	0.965521367521368	-1	1	FALSE	-0.034478632478632	1	0.95	-0.424623328995116	7.86896846506303
0.95	49 hooligans	a thief	cMorals	wgsr277	Female	21	cMorals1	38	1	1	38	key	500	d	7.02967198148096	No	1_1	49个流氓	1个小偷	1	1	1	38	1	0.472	0.0464282377974315	0.944	-1	1	FALSE	-0.056	1	0.95	-0.809840485190723	7.83951246667168
0.95	53 judges	9 judges	cMorals	wgsr277	Female	21	cMorals1	73	1	1	73	key	500	d	8.37978687238184	No	1_1	53位法官	9个法官	1	1	1	73	1	0.548406504065041	0.0439604563360278	0.903186991869919	1	0	TRUE	0.096813008130081	0	0.95	0.500596334773341	7.8791905376085
0.95	an adult	50 elderly people	cMorals	wgsr277	Female	21	cMorals1	7	1	1	7	key	500	d	7.18823900539653	No	1_1	1位成年人	50位老人	1	1	1	7	1	0.548595041322314	0.045787133570402	0.902809917355372	-1	1	FALSE	-0.097190082644628	1	0.95	-0.616296921686169	7.8045359270827
0.95	48 homeless adults	5 astronauts	cMorals	wgsr277	Female	21	cMorals1	41	1	1	41	key	500	d	7.23906420865552	No	1_1	48个流浪的人	5位宇航员	1	1	1	41	1	0.469393162393162	0.0452478870334242	0.938786324786325	-1	1	FALSE	-0.061213675213675	1	0.95	-0.603841391887794	7.84290560054332
0.95	7 assassins	an assassin	cMorals	wgsr277	Female	21	cMorals1	40	1	1	40	key	500	d	7.83662654305763	No	1_1	7位刺客	1位刺客	1	1	1	40	1	0.469983333333333	0.045559397650428	0.939966666666667	-1	1	FALSE	-0.060033333333333	1	0.95	-0.00514784971187776	7.84177439276951
0.95	5 orphans	6 elderly people	cMorals	wgsr277	Female	21	cMorals1	16	1	1	16	key	500	d	7.66367301249247	No	1_1	5个孤儿	6个老人	1	1	1	16	1	0.469206349206349	0.0448532358943053	0.938412698412698	-1	1	FALSE	-0.061587301587302	1	0.95	-0.151001286955624	7.8146742994481
0.95	a thief	50 thieves	cMorals	wgsr277	Female	21	cMorals1	47	1	1	47	key	500	k	7.95109795713445	Yes	1_1	1个小偷	50个小偷	1	1	1	47	1	0.476900826446281	0.0448093750042418	0.953801652892562	1	1	TRUE	0.046198347107438	1	0.95	0.101401682316729	7.84969627481772
0.95	a police officer	5 astronauts	cMorals	wgsr277	Female	21	cMorals1	21	1	1	21	key	500	d	8.04724396069066	No	1_1	1位警察	5位宇航员	1	1	1	21	1	0.490212598425197	0.045909594465976	0.980425196850394	1	0	TRUE	0.019574803149606	0	0.95	0.226931542457222	7.82031241823344
0.95	49 astronauts	47 olympians	cMorals	wgsr277	Female	21	cMorals1	107	1	1	107	key	500	d	7.45695702857063	No	1_1	49位宇航员	47名奥运选手	1	1	1	107	1	0.465141666666667	0.0456294651486999	0.930283333333333	1	0	TRUE	0.069716666666667	0	0.95	-0.460970209193594	7.91792723776423
0.95	an orphan	6 elderly people	cMorals	wgsr277	Female	21	cMorals1	112	1	1	112	key	500	d	8.23860695943076	No	1_1	1个孤儿	6个老人	1	1	1	112	1	0.486626016260163	0.0456368370861986	0.973252032520325	1	0	TRUE	0.026747967479675	0	0.95	0.314967108115462	7.9236398513153
0.05	48 soldiers	a terrorist	cMorals	edwo135	Female	19	cMorals1	47	1	1	47	key	500	k	7.42589409604146	Yes	1_1	48位士兵	1位恐怖分子	1	1	1	47	1	0.964068965517241	0.01744251188926	0.0718620689655172	1	1	TRUE	0.928137931034483	1	0.05	-0.722181342180495	8.14807543822196
0.05	8 terrorists	an orphan	cMorals	edwo135	Female	19	cMorals1	87	1	1	87	key	500	d	7.70422590177533	No	1_1	8位恐怖分子	1个孤儿	1	1	1	87	1	0.0375702479338843	0.0173362434615969	0.0751404958677686	-1	1	FALSE	-0.924859504132231	1	0.05	-0.397756476095718	8.10198237787104
0.05	5 mentors	a pedophile	cMorals	edwo135	Female	19	cMorals1	114	1	1	114	key	500	k	7.79465839396231	Yes	1_1	5位导师	1位恋童癖的人	1	1	1	114	1	0.960380165289256	0.0173592596510883	0.0792396694214876	1	1	TRUE	0.920760330578512	1	0.05	-0.303497563174492	8.0981559571368
0.05	a soldier	9 rapists	cMorals	edwo135	Female	19	cMorals1	71	1	1	71	key	500	k	7.57901465978177	Yes	1_1	1位士兵	9个强奸犯	1	1	1	71	1	0.0289747899159664	0.0154234641788166	0.0579495798319327	1	1	TRUE	0.942050420168067	1	0.05	-0.530511883100323	8.10952654288209
0.15	50 elderly people	a terrorist	cMorals	edwo135	Female	19	cMorals1	14	1	1	14	key	500	k	8.20253723959674	Yes	1_1	50位老人	1位恐怖分子	1	1	1	14	1	0.940173553719008	0.0213321483207895	0.119652892561984	1	1	TRUE	0.880347107438016	1	0.15	-0.251494130389446	8.45403136998618
0.15	8 billionaires	a rapist	cMorals	edwo135	Female	19	cMorals1	10	1	1	10	key	500	k	8.2241367026286	Yes	1_1	8位亿万富翁	1位强奸犯	1	1	1	10	1	0.902706766917293	0.0253995287875023	0.194586466165414	1	1	TRUE	0.805413533834586	1	0.15	-0.324909241775128	8.54904594440373
0.15	a thief	4 soldiers	cMorals	edwo135	Female	19	cMorals1	12	1	1	12	key	500	d	8.09144374000491	No	1_1	1个小偷	4位士兵	1	1	1	12	1	0.928764227642276	0.0226289580060395	0.142471544715447	-1	1	FALSE	-0.857528455284553	1	0.15	-0.407294451690444	8.49873819169535
0.15	53 rapists	6 police officers	cMorals	edwo135	Female	19	cMorals1	7	1	1	7	key	500	d	8.76439696027857	No	1_1	53个强奸犯	6位警察	1	1	1	7	1	0.0872033898305085	0.0271532699575677	0.174406779661017	-1	1	FALSE	-0.825593220338983	1	0.15	0.127828944014409	8.63656801626416
0.15	8 terrorists	50 police officers	cMorals	edwo135	Female	19	cMorals1	21	1	1	21	key	500	d	7.53155238140729	No	1_1	8位恐怖分子	50位警官	1	1	1	21	1	0.92319298245614	0.0249970521262694	0.153614035087719	-1	1	FALSE	-0.846385964912281	1	0.15	-0.801715363116594	8.33326774452388
0.15	53 rapists	49 orphans	cMorals	edwo135	Female	19	cMorals1	28	1	1	28	key	500	d	8.15375255456288	No	1_1	53个强奸犯	49个孤儿	1	1	1	28	1	0.934094017094017	0.0224713052166745	0.131811965811966	-1	1	FALSE	-0.868188034188034	1	0.15	-0.0996197085211392	8.25337226308402
0.15	49 astronauts	53 rapists	cMorals	edwo135	Female	19	cMorals1	111	1	1	111	key	500	k	9.25779631313248	Yes	1_1	49位宇航员	53个强奸犯	1	1	1	111	1	0.907551724137931	0.0271486606064018	0.184896551724138	1	1	TRUE	0.815103448275862	1	0.15	1.15945132227453	8.09834499085795
0.15	53 judges	47 pedophiles	cMorals	edwo135	Female	19	cMorals1	36	1	1	36	key	500	k	7.98456494168839	Yes	1_1	53位法官	47个恋童癖	1	1	1	36	1	0.0885793650793651	0.0249551953837642	0.17715873015873	1	1	TRUE	0.82284126984127	1	0.15	-0.210027634801355	8.19459257648974
0.15	49 orphans	a hooligan	cMorals	edwo135	Female	19	cMorals1	41	1	1	41	key	500	k	7.77712210414394	Yes	1_1	49个孤儿	1个流氓	1	1	1	41	1	0.90255	0.0266048196298838	0.1949	1	1	TRUE	0.8051	1	0.15	-0.392578635549036	8.16970073969298
0.15	6 thieves	an orphan	cMorals	edwo135	Female	19	cMorals1	23	1	1	23	key	500	d	8.08394570229562	No	1_1	6个小偷	1个孤儿	1	1	1	23	1	0.0988151260504202	0.026194553333951	0.19763025210084	-1	1	FALSE	-0.80236974789916	1	0.15	-0.223037600910184	8.3069833032058
0.15	a police officer	8 terrorists	cMorals	edwo135	Female	19	cMorals1	90	1	1	90	key	500	k	8.42468308773625	Yes	1_1	1位警察	8位恐怖分子	1	1	1	90	1	0.0540076923076923	0.0199158915796398	0.108015384615385	1	1	TRUE	0.891984615384615	1	0.15	0.323479952558744	8.10120313517751
0.15	5 celebrities	a pedophile	cMorals	edwo135	Female	19	cMorals1	55	1	1	55	key	500	k	7.84267147497946	Yes	1_1	5个明星	1位恋童癖的人	1	1	1	55	1	0.912453846153846	0.0236584402021502	0.175092307692308	1	1	TRUE	0.824907692307692	1	0.15	-0.286250530807828	8.12892200578728
0.25	a rapist	53 judges	cMorals	edwo135	Female	19	cMorals1	49	1	1	49	key	500	d	8.2534880283459	No	1_1	1位强奸犯	53位法官	1	1	1	49	1	0.896827067669173	0.0267307301167971	0.206345864661654	-1	1	FALSE	-0.793654135338346	1	0.25	0.111078950264892	8.14240907808101
0.25	an astronaut	a hooligan	cMorals	edwo135	Female	19	cMorals1	66	1	1	66	key	500	k	7.87944287407602	Yes	1_1	1位宇航员	1个流氓	1	1	1	66	1	0.13380487804878	0.0299666258737666	0.267609756097561	1	1	TRUE	0.732390243902439	1	0.25	-0.234321465577111	8.11376433965313
0.25	9 judges	53 rapists	cMorals	edwo135	Female	19	cMorals1	27	1	1	27	key	500	k	8.12684327111736	Yes	1_1	9个法官	53个强奸犯	1	1	1	27	1	0.111401785714286	0.0301395376603281	0.222803571428571	1	1	TRUE	0.777196428571429	1	0.25	-0.13602435601981	8.26286762713717
0.25	52 terrorists	8 billionaires	cMorals	edwo135	Female	19	cMorals1	72	1	1	72	key	500	d	8.03388545368795	No	1_1	52个恐怖分子	8位亿万富翁	1	1	1	72	1	0.129503937007874	0.0300347420514541	0.259007874015748	-1	1	FALSE	-0.740992125984252	1	0.25	-0.0749335232003183	8.10881897688827
0.25	a thief	a university student	cMorals	edwo135	Female	19	cMorals1	89	1	1	89	key	500	d	7.71382927839796	No	1_1	1个小偷	1位大学生	1	1	1	89	1	0.87342735042735	0.0301152411144853	0.253145299145299	-1	1	FALSE	-0.746854700854701	1	0.25	-0.387618434481872	8.10144771287983
0.25	a terrorist	53 judges	cMorals	edwo135	Female	19	cMorals1	19	1	1	19	key	500	d	8.10955572544686	No	1_1	1位恐怖分子	53位法官	1	1	1	19	1	0.893301587301587	0.0273236307244025	0.213396825396825	-1	1	FALSE	-0.786603174603175	1	0.25	-0.25328941069993	8.36284513614679
0.25	a thief	3 university students	cMorals	edwo135	Female	19	cMorals1	34	1	1	34	key	500	d	7.64468008188797	No	1_1	1个小偷	3位大学生	1	1	1	34	1	0.864376	0.029820460826149	0.271248	-1	1	FALSE	-0.728752	1	0.25	-0.562116473895913	8.20679655578388
0.25	51 assassins	49 orphans	cMorals	edwo135	Female	19	cMorals1	8	1	1	8	key	500	d	8.95323923293335	No	1_1	51位刺客	49个孤儿	1	1	1	8	1	0.86475	0.0303022813806634	0.2705	-1	1	FALSE	-0.7295	1	0.25	0.347582912622544	8.60565632031081
0.25	a celebrity	a rapist	cMorals	edwo135	Female	19	cMorals1	67	1	1	67	key	500	k	8.39215137443628	Yes	1_1	1个明星	1位强奸犯	1	1	1	67	1	0.872823529411765	0.0308272835492091	0.254352941176471	1	1	TRUE	0.745647058823529	1	0.25	0.279337463949764	8.11281391048652
0.25	47 university students	6 thieves	cMorals	edwo135	Female	19	cMorals1	56	1	1	56	key	500	k	7.09854091418453	Yes	1_1	47位大学生	6个小偷	1	1	1	56	1	0.882159663865546	0.0291713118448912	0.235680672268908	1	1	TRUE	0.764319327731092	1	0.25	-1.02856199433142	8.12710290851594
0.25	an elderly person	6 thieves	cMorals	edwo135	Female	19	cMorals1	62	1	1	62	key	500	d	8.5254787710033	No	1_1	1位老人	6个小偷	1	1	1	62	1	0.108854700854701	0.0289183986130639	0.217709401709402	1	0	TRUE	0.782290598290598	0	0.25	0.407298715954179	8.11818005504913
0.25	7 assassins	an orphan	cMorals	edwo135	Female	19	cMorals1	95	1	1	95	key	500	d	8.01055877226921	No	1_1	7位刺客	1个孤儿	1	1	1	95	1	0.109860869565217	0.0287416876701766	0.219721739130435	-1	1	FALSE	-0.780278260869565	1	0.25	-0.0896163308205526	8.10017510308976
0.25	an orphan	49 hooligans	cMorals	edwo135	Female	19	cMorals1	97	1	1	97	key	500	k	9.36607836278737	Yes	1_1	1个孤儿	49个流氓	1	1	1	97	1	0.127956896551724	0.0324927477017151	0.255913793103448	1	1	TRUE	0.744086206896552	1	0.25	1.26623671472015	8.09984164806722
0.35	5 hooligans	an adult	cMorals	edwo135	Female	19	cMorals1	50	1	1	50	key	500	d	7.91158058428649	No	1_1	5个流氓	1位成年人	1	1	1	50	1	0.190584	0.0358894273428122	0.381168	-1	1	FALSE	-0.618832	1	0.35	-0.228236468196088	8.13981705248257
0.35	50 thieves	9 adults	cMorals	edwo135	Female	19	cMorals1	52	1	1	52	key	500	d	7.49554194388426	No	1_1	50个小偷	9位成年人	1	1	1	52	1	0.172776	0.0339133593136973	0.345552	-1	1	FALSE	-0.654448	1	0.35	-0.639528182266294	8.13507012615055
0.35	9 adults	49 hooligans	cMorals	edwo135	Female	19	cMorals1	33	1	1	33	key	500	k	8.54071438645758	Yes	1_1	9位成年人	49个流氓	1	1	1	33	1	0.152866666666667	0.0337310111684749	0.305733333333333	1	1	TRUE	0.694266666666667	1	0.35	0.327253933970722	8.21346045248686
0.35	7 convicts	50 elderly people	cMorals	edwo135	Female	19	cMorals1	120	1	1	120	key	500	d	7.45100936996833	No	1_1	7位罪犯	50位老人	1	1	1	120	1	0.825049180327869	0.0346436610698086	0.349901639344262	-1	1	FALSE	-0.650098360655738	1	0.35	-0.646855561534524	8.09786493150285
0.35	7 convicts	5 astronauts	cMorals	edwo135	Female	19	cMorals1	108	1	1	108	key	500	d	8.8096538283201	No	1_1	7位罪犯	5位宇航员	1	1	1	108	1	0.810739495798319	0.0358496847292283	0.378521008403361	-1	1	FALSE	-0.621478991596639	1	0.35	0.711083189733939	8.09857063858616
0.35	6 elderly people	7 convicts	cMorals	edwo135	Female	19	cMorals1	70	1	1	70	key	500	k	8.18601889588791	Yes	1_1	6个老人	7位罪犯	1	1	1	70	1	0.842634146341463	0.0335174966716746	0.314731707317073	1	1	TRUE	0.685268292682927	1	0.35	0.0757417720987323	8.11027712378917
0.35	47 university students	a convict	cMorals	edwo135	Female	19	cMorals1	73	1	1	73	key	500	k	7.8284761831362	Yes	1_1	47位大学生	1位罪犯	1	1	1	73	1	0.8395703125	0.0312917863376445	0.320859375	1	1	TRUE	0.679140625	1	0.35	-0.279675777537178	8.10815196067338
0.35	5 hooligans	6 police officers	cMorals	edwo135	Female	19	cMorals1	115	1	1	115	key	500	d	7.86284355756363	No	1_1	5个流氓	6位警察	1	1	1	115	1	0.1783984375	0.0351180182578502	0.356796875	-1	1	FALSE	-0.643203125	1	0.35	-0.235256468539621	8.09810002610325
0.35	a university student	a convict	cMorals	edwo135	Female	19	cMorals1	35	1	1	35	key	500	k	8.55773994806317	Yes	1_1	1位大学生	1位罪犯	1	1	1	35	1	0.811385826771653	0.0364008307029768	0.377228346456693	1	1	TRUE	0.622771653543307	1	0.35	0.357225388862027	8.20051455920114
0.35	48 nuns	6 thieves	cMorals	edwo135	Female	19	cMorals1	39	1	1	39	key	500	k	8.23551969791202	Yes	1_1	48位修女	6个小偷	1	1	1	39	1	0.819991452991453	0.0365003465084684	0.360017094017094	1	1	TRUE	0.639982905982906	1	0.35	0.056733461854618	8.1787862360574
0.35	a convict	49 astronauts	cMorals	edwo135	Female	19	cMorals1	80	1	1	80	key	500	d	7.60887062919126	No	1_1	1位罪犯	49位宇航员	1	1	1	80	1	0.827837209302326	0.0338008776342613	0.344325581395349	-1	1	FALSE	-0.655674418604651	1	0.35	-0.495568262096422	8.10443889128768
0.45	5 hooligans	47 pedophiles	cMorals	edwo135	Female	19	cMorals1	32	1	1	32	key	500	d	9.13499163038585	No	1_1	5个流氓	47个恋童癖	1	1	1	32	1	0.224056	0.0381052341925998	0.448112	1	0	TRUE	0.551888	0	0.45	0.914462164300673	8.22052946608517
0.45	4 nuns	49 hooligans	cMorals	edwo135	Female	19	cMorals1	9	1	1	9	key	500	d	9.31456524303372	No	1_1	4位修女	49个流氓	1	1	1	9	1	0.761563025210084	0.0387479578295022	0.476873949579832	1	0	TRUE	0.523126050420168	0	0.45	0.73804910556202	8.5765161374717
0.45	49 mentors	a convict	cMorals	edwo135	Female	19	cMorals1	45	1	1	45	key	500	k	8.24913072297812	Yes	1_1	49位导师	1位罪犯	1	1	1	45	1	0.798325757575758	0.034657155341952	0.403348484848485	1	1	TRUE	0.596651515151515	1	0.45	0.0946790353644698	8.15445168761365
0.45	7 convicts	53 rapists	cMorals	edwo135	Female	19	cMorals1	22	1	1	22	key	500	d	8.64056060536652	No	1_1	7位罪犯	53个强奸犯	1	1	1	22	1	0.21498275862069	0.0386974935840021	0.429965517241379	1	0	TRUE	0.570034482758621	0	0.45	0.320822773222833	8.31973783214369
0.45	5 mentors	51 convicts	cMorals	edwo135	Female	19	cMorals1	65	1	1	65	key	500	k	8.32105664558856	Yes	1_1	5位导师	51个罪犯	1	1	1	65	1	0.781618181818182	0.0386503628024322	0.436763636363636	1	1	TRUE	0.563236363636364	1	0.45	0.206284097524881	8.11477254806367
0.45	7 assassins	53 rapists	cMorals	edwo135	Female	19	cMorals1	53	1	1	53	key	500	k	8.51535149653627	Yes	1_1	7位刺客	53个强奸犯	1	1	1	53	1	0.2455	0.0402125533559682	0.491	1	1	TRUE	0.509	1	0.45	0.382452809238959	8.13289868729731
0.45	an astronaut	an addict	cMorals	edwo135	Female	19	cMorals1	117	1	1	117	key	500	k	7.64468008188797	Yes	1_1	1位宇航员	1位瘾君子	1	1	1	117	1	0.239768595041322	0.039372643781938	0.479537190082645	1	1	TRUE	0.520462809917355	1	0.45	-0.453317514479976	8.09799759636795
0.45	a billionaire	49 hooligans	cMorals	edwo135	Female	19	cMorals1	113	1	1	113	key	500	k	8.72523122671555	Yes	1_1	1位亿万富翁	49个流氓	1	1	1	113	1	0.207211009174312	0.0391613377144726	0.414422018348624	1	1	TRUE	0.585577981651376	1	0.45	0.627015938341428	8.09821528837413
0.45	8 billionaires	a hooligan	cMorals	edwo135	Female	19	cMorals1	64	1	1	64	key	500	k	8.04821303823871	Yes	1_1	8位亿万富翁	1个流氓	1	1	1	64	1	0.793072	0.0357932391936239	0.413856	1	1	TRUE	0.586144	1	0.45	-0.0676290100410917	8.1158420482798
0.45	a nun	48 soldiers	cMorals	edwo135	Female	19	cMorals1	68	1	1	68	key	500	d	9.43870228393167	No	1_1	1位修女	48位士兵	1	1	1	68	1	0.7637	0.037527345162805	0.4726	-1	1	FALSE	-0.5274	1	0.45	1.32678433462866	8.11191794930302
0.45	49 celebrities	a hooligan	cMorals	edwo135	Female	19	cMorals1	38	1	1	38	key	500	k	7.99209959585254	Yes	1_1	49个明星	1个流氓	1	1	1	38	1	0.765243902439024	0.0369825477998108	0.469512195121951	1	1	TRUE	0.530487804878049	1	0.45	-0.191647711328345	8.18374730718089
0.45	48 nuns	a convict	cMorals	edwo135	Female	19	cMorals1	94	1	1	94	key	500	k	7.61446013747268	Yes	1_1	48位修女	1位罪犯	1	1	1	94	1	0.767039682539683	0.0380533668539714	0.465920634920635	1	1	TRUE	0.534079365079365	1	0.45	-0.485897046377117	8.1003571838498
0.55	49 orphans	an olympian	cMorals	edwo135	Female	19	cMorals1	118	1	1	118	key	500	k	7.52434533682073	Yes	1_1	49个孤儿	1位奥运选手	1	1	1	118	1	0.706695652173913	0.0430110247137135	0.586608695652174	1	1	TRUE	0.413391304347826	1	0.55	-0.573605403983969	8.0979507408047
0.55	51 assassins	4 nuns	cMorals	edwo135	Female	19	cMorals1	63	1	1	63	key	500	d	8.08036124755811	No	1_1	51位刺客	4位修女	1	1	1	63	1	0.746849206349206	0.0405807360833218	0.506301587301587	-1	1	FALSE	-0.493698412698413	1	0.55	-0.0366153188434737	8.11697656640159
0.55	50 addicts	47 university students	cMorals	edwo135	Female	19	cMorals1	93	1	1	93	key	500	d	7.55197478591866	No	1_1	50个瘾君子	47位大学生	1	1	1	93	1	0.700229508196721	0.0417314850689337	0.599540983606557	-1	1	FALSE	-0.400459016393443	1	0.55	-0.548575547889189	8.10055033380785
0.55	an elderly person	6 addicts	cMorals	edwo135	Female	19	cMorals1	101	1	1	101	key	500	d	8.40149049036317	No	1_1	1位老人	6位瘾君子	1	1	1	101	1	0.275655462184874	0.0403354606300775	0.551310924369748	1	0	TRUE	0.448689075630252	0	0.55	0.302208511553502	8.09928197880967
0.55	50 addicts	53 adults	cMorals	edwo135	Female	19	cMorals1	11	1	1	11	key	500	d	8.64241515616962	No	1_1	50个瘾君子	53位成年人	1	1	1	11	1	0.275808	0.0393186608761424	0.551616	-1	1	FALSE	-0.448384	1	0.55	0.119265120221845	8.52315003594777
0.55	53 adults	50 addicts	cMorals	edwo135	Female	19	cMorals1	2	1	1	2	key	500	k	8.5967804107545	Yes	1_1	53位成年人	50个瘾君子	1	1	1	2	1	0.275808	0.0393186608761424	0.551616	1	1	TRUE	0.448384	1	0.55	-0.224925792537043	8.82170620329154
0.55	48 homeless adults	51 convicts	cMorals	edwo135	Female	19	cMorals1	119	1	1	119	key	500	k	7.69666708152646	Yes	1_1	48个流浪的人	51个罪犯	1	1	1	119	1	0.739585585585586	0.0404577044914491	0.520828828828829	1	1	TRUE	0.479171171171171	1	0.55	-0.401239488952481	8.09790657047894
0.65	50 addicts	5 astronauts	cMorals	edwo135	Female	19	cMorals1	42	1	1	42	key	500	d	8.08073264960601	No	1_1	50个瘾君子	5位宇航员	1	1	1	42	1	0.651540983606557	0.0424291389995562	0.696918032786885	-1	1	FALSE	-0.303081967213115	1	0.65	-0.0848120113052921	8.16554466091131
0.65	a judge	an addict	cMorals	edwo135	Female	19	cMorals1	79	1	1	79	key	500	k	7.84239660406771	Yes	1_1	1位法官	1位瘾君子	1	1	1	79	1	0.67434188034188	0.0409084013061977	0.651316239316239	1	1	TRUE	0.348683760683761	1	0.65	-0.262483575574907	8.10488017964262
0.65	5 hooligans	9 rapists	cMorals	edwo135	Female	19	cMorals1	82	1	1	82	key	500	k	7.88765910391848	Yes	1_1	5个流氓	9个强奸犯	1	1	1	82	1	0.68248	0.0417237398907441	0.63504	1	1	TRUE	0.36496	1	0.65	-0.215971630492453	8.10363073441093
0.65	53 adults	a celebrity	cMorals	edwo135	Female	19	cMorals1	105	1	1	105	key	500	k	7.51485425491744	Yes	1_1	53位成年人	1个明星	1	1	1	105	1	0.667859649122807	0.0434737993163469	0.664280701754386	1	1	TRUE	0.335719298245614	1	0.65	-0.583985737183736	8.09883999210118
0.65	50 police officers	5 celebrities	cMorals	edwo135	Female	19	cMorals1	98	1	1	98	key	500	k	7.62710612503944	Yes	1_1	50位警官	5个明星	1	1	1	98	1	0.33027731092437	0.0430900611607985	0.660554621848739	1	1	TRUE	0.339445378151261	1	0.65	-0.472582987020036	8.09968911205948
0.65	4 soldiers	a billionaire	cMorals	edwo135	Female	19	cMorals1	57	1	1	57	key	500	k	7.75700836951699	Yes	1_1	4位士兵	1位亿万富翁	1	1	1	57	1	0.66123275862069	0.0446045200697662	0.677534482758621	1	1	TRUE	0.322465517241379	1	0.65	-0.368379692063059	8.12538806158005
0.65	4 nuns	4 soldiers	cMorals	edwo135	Female	19	cMorals1	24	1	1	24	key	500	d	7.25890498688013	No	1_1	4位修女	4位士兵	1	1	1	24	1	0.303031746031746	0.0393233148788388	0.606063492063492	-1	1	FALSE	-0.393936507936508	1	0.65	-1.03605473451258	8.29495972139271
0.65	6 addicts	5 mentors	cMorals	edwo135	Female	19	cMorals1	6	1	1	6	key	500	d	8.23761155499832	No	1_1	6位瘾君子	5位导师	1	1	1	6	1	0.663025210084034	0.0436724306109364	0.673949579831933	-1	1	FALSE	-0.326050420168067	1	0.65	-0.431747365564142	8.66935892056247
0.65	50 elderly people	6 addicts	cMorals	edwo135	Female	19	cMorals1	17	1	1	17	key	500	k	9.07509322256816	Yes	1_1	50位老人	6位瘾君子	1	1	1	17	1	0.677524193548387	0.0436618467789468	0.644951612903226	1	1	TRUE	0.355048387096774	1	0.65	0.678965199232387	8.39612802333577
0.65	49 celebrities	a soldier	cMorals	edwo135	Female	19	cMorals1	91	1	1	91	key	500	k	7.59231569860401	Yes	1_1	49个明星	1位士兵	1	1	1	91	1	0.326328	0.0419346507190764	0.652656	-1	0	FALSE	-0.347344	0	0.65	-0.508656875333025	8.10097257393703
0.65	3 olympians	a soldier	cMorals	edwo135	Female	19	cMorals1	77	1	1	77	key	500	k	7.68390999852638	Yes	1_1	3个奥运选手	1位士兵	1	1	1	77	1	0.3489140625	0.0413384446865015	0.697828125	-1	0	FALSE	-0.302171875	0	0.65	-0.421934870178966	8.10584486870534
0.75	5 astronauts	49 orphans	cMorals	edwo135	Female	19	cMorals1	40	1	1	40	key	500	d	7.58029150563948	No	1_1	5位宇航员	49个孤儿	1	1	1	40	1	0.608083333333333	0.0451882670555032	0.783833333333333	-1	1	FALSE	-0.216166666666667	1	0.75	-0.593817972473798	8.17410947811328
0.75	6 elderly people	a judge	cMorals	edwo135	Female	19	cMorals1	58	1	1	58	key	500	k	7.66617508615758	Yes	1_1	6个老人	1位法官	1	1	1	58	1	0.639691056910569	0.0451682482341156	0.720617886178862	1	1	TRUE	0.279382113821138	1	0.75	-0.45759640435731	8.12377149051489
0.75	4 soldiers	5 mentors	cMorals	edwo135	Female	19	cMorals1	26	1	1	26	key	500	d	7.80085926388218	No	1_1	4位士兵	5位导师	1	1	1	26	1	0.601603305785124	0.0442980559162604	0.796793388429752	1	0	TRUE	0.203206611570248	0	0.75	-0.472080977013051	8.27294024089523
0.75	5 orphans	4 nuns	cMorals	edwo135	Female	19	cMorals1	18	1	1	18	key	500	d	8.55668309910236	No	1_1	5个孤儿	4位修女	1	1	1	18	1	0.373208	0.0427620547837604	0.746416	1	0	TRUE	0.253584	0	0.75	0.177687437150173	8.37899566195219
0.75	50 addicts	7 convicts	cMorals	edwo135	Female	19	cMorals1	88	1	1	88	key	500	k	8.81430070451473	Yes	1_1	50个瘾君子	7位罪犯	1	1	1	88	1	0.619105691056911	0.0430921870522071	0.761788617886179	1	1	TRUE	0.238211382113821	1	0.75	0.712593545370854	8.10170715914388
0.75	an olympian	an elderly person	cMorals	edwo135	Female	19	cMorals1	1	1	1	1	key	500	d	9.30916255927467	No	1_1	1位奥运选手	1位老人	1	1	1	1	1	0.618045045045045	0.0449551276344797	0.76390990990991	-1	1	FALSE	-0.23609009009009	1	0.75	0.443410384135095	8.86575217513957
0.75	47 olympians	3 university students	cMorals	edwo135	Female	19	cMorals1	13	1	1	13	key	500	k	9.64069969836728	Yes	1_1	47名奥运选手	3位大学生	1	1	1	13	1	0.389803149606299	0.0438257799308023	0.779606299212598	1	1	TRUE	0.220393700787402	1	0.75	1.16497433670329	8.475725361664
0.75	a judge	49 astronauts	cMorals	edwo135	Female	19	cMorals1	37	1	1	37	key	500	d	8.31942494643253	No	1_1	1位法官	49位宇航员	1	1	1	37	1	0.6176	0.0471282524956571	0.7648	-1	1	FALSE	-0.2352	1	0.75	0.13041497075643	8.1890099756761
0.75	a judge	6 elderly people	cMorals	edwo135	Female	19	cMorals1	3	1	1	3	key	500	d	7.8845012065551	No	1_1	1位法官	6个老人	1	1	1	3	1	0.639691056910569	0.0451682482341156	0.720617886178862	-1	1	FALSE	-0.279382113821138	1	0.75	-0.895683247981048	8.78018445453615
0.75	a homeless adult	an adult	cMorals	edwo135	Female	19	cMorals1	84	1	1	84	key	500	d	7.80012210273631	No	1_1	1个流浪的人	1位成年人	1	1	1	84	1	0.377801587301587	0.0418828407672306	0.755603174603175	-1	1	FALSE	-0.244396825396825	1	0.75	-0.302790449616062	8.10291255235237
0.75	49 celebrities	50 elderly people	cMorals	edwo135	Female	19	cMorals1	83	1	1	83	key	500	d	7.58370543471659	No	1_1	49个明星	50位老人	1	1	1	83	1	0.366015748031496	0.0431347708229642	0.732031496062992	-1	1	FALSE	-0.267968503937008	1	0.75	-0.519555615583205	8.1032610502998
0.75	a celebrity	9 adults	cMorals	edwo135	Female	19	cMorals1	16	1	1	16	key	500	d	7.94534286581194	No	1_1	1个明星	9位成年人	1	1	1	16	1	0.639286956521739	0.0457405730846594	0.721426086956522	-1	1	FALSE	-0.278573913043478	1	0.75	-0.468959043013018	8.41430190882496
0.75	50 police officers	a soldier	cMorals	edwo135	Female	19	cMorals1	60	1	1	60	key	500	k	7.26318945348787	Yes	1_1	50位警官	1位士兵	1	1	1	60	1	0.380300884955752	0.0437903879204947	0.760601769911504	-1	0	FALSE	-0.239398230088496	0	0.75	-0.857621516976063	8.12081097046393
0.75	48 homeless adults	49 orphans	cMorals	edwo135	Female	19	cMorals1	20	1	1	20	key	500	d	8.47664199356152	No	1_1	48个流浪的人	49个孤儿	1	1	1	20	1	0.360899159663866	0.0444983424505223	0.721798319327731	-1	1	FALSE	-0.278201680672269	1	0.75	0.129021815489732	8.34762017807179
0.85	a nun	a celebrity	cMorals	edwo135	Female	19	cMorals1	61	1	1	61	key	500	d	8.19439503694226	No	1_1	1位修女	1个明星	1	1	1	61	1	0.439330434782609	0.0458329771672266	0.878660869565217	1	0	TRUE	0.121339130434783	0	0.85	0.0749383298089104	8.11945670713335
0.85	a soldier	47 olympians	cMorals	edwo135	Female	19	cMorals1	15	1	1	15	key	500	d	7.9183374901443	No	1_1	1位士兵	47名奥运选手	1	1	1	15	1	0.423363636363636	0.0444874178788626	0.846727272727273	1	0	TRUE	0.153272727272727	0	0.85	-0.515243145435218	8.43358063557951
0.85	48 nuns	47 university students	cMorals	edwo135	Female	19	cMorals1	25	1	1	25	key	500	d	8.14174309215074	No	1_1	48位修女	47位大学生	1	1	1	25	1	0.584362068965517	0.0463173145696514	0.831275862068966	-1	1	FALSE	-0.168724137931034	1	0.85	-0.141882104829486	8.28362519698022
0.85	6 addicts	49 celebrities	cMorals	edwo135	Female	19	cMorals1	92	1	1	92	key	500	d	7.84133567939384	No	1_1	6位瘾君子	49个明星	1	1	1	92	1	0.573563492063492	0.044556376311533	0.852873015873016	-1	1	FALSE	-0.147126984126984	1	0.85	-0.259419546497553	8.10075522589139
0.85	49 mentors	an olympian	cMorals	edwo135	Female	19	cMorals1	29	1	1	29	key	500	k	8.6269082124399	Yes	1_1	49位导师	1位奥运选手	1	1	1	29	1	0.594623931623932	0.0458471391417963	0.810752136752137	1	1	TRUE	0.189247863247863	1	0.85	0.382487145209081	8.24442106723082
0.85	a billionaire	a mentor	cMorals	edwo135	Female	19	cMorals1	112	1	1	112	key	500	d	8.44046332355815	No	1_1	1位亿万富翁	1位导师	1	1	1	112	1	0.417182608695652	0.0454931348150069	0.834365217391304	-1	1	FALSE	-0.165634782608696	1	0.85	0.342185097035054	8.0982782265231
0.85	a thief	7 assassins	cMorals	edwo135	Female	19	cMorals1	75	1	1	75	key	500	d	8.39495775853256	No	1_1	1个小偷	7位刺客	1	1	1	75	1	0.425131578947368	0.0472478865933029	0.850263157894737	1	0	TRUE	0.149736842105263	0	0.85	0.288027343215928	8.10693041531663
0.85	49 celebrities	an adult	cMorals	edwo135	Female	19	cMorals1	43	1	1	43	key	500	k	8.75999818358994	Yes	1_1	49个明星	1位成年人	1	1	1	43	1	0.421642276422764	0.0448360305899399	0.843284552845529	-1	0	FALSE	-0.156715447154471	0	0.85	0.598371421449841	8.1616267621401
0.85	an astronaut	6 police officers	cMorals	edwo135	Female	19	cMorals1	69	1	1	69	key	500	d	9.56065915827615	No	1_1	1位宇航员	6位警察	1	1	1	69	1	0.575504	0.0443223471225798	0.848992	-1	1	FALSE	-0.151008	1	0.85	1.4495858236699	8.11107333460625
0.85	6 elderly people	a soldier	cMorals	edwo135	Female	19	cMorals1	59	1	1	59	key	500	k	7.30666561811663	Yes	1_1	6个老人	1位士兵	1	1	1	59	1	0.430983870967742	0.0430127475803961	0.861967741935484	-1	0	FALSE	-0.138032258064516	0	0.85	-0.815581945128721	8.12224756324535
0.95	3 university students	4 nuns	cMorals	edwo135	Female	19	cMorals1	54	1	1	54	key	500	d	7.52666370960575	No	1_1	3位大学生	4位修女	1	1	1	54	1	0.516674418604651	0.043552346761855	0.966651162790698	1	0	TRUE	0.033348837209302	0	0.95	-0.604187981457422	8.13085169106317
0.95	49 mentors	5 orphans	cMorals	edwo135	Female	19	cMorals1	106	1	1	106	key	500	k	7.84990867038202	Yes	1_1	49位导师	5个孤儿	1	1	1	106	1	0.475285714285714	0.04399126076182	0.950571428571429	-1	0	FALSE	-0.049428571428571	0	0.95	-0.248836189442429	8.09874485982445
0.95	49 celebrities	52 billionaires	cMorals	edwo135	Female	19	cMorals1	103	1	1	103	key	500	d	8.43318094888733	No	1_1	49个明星	52位亿万富翁	1	1	1	103	1	0.4581015625	0.0440468569985566	0.916203125	-1	1	FALSE	-0.083796875	1	0.95	0.334132990575757	8.09904795831158
0.95	a judge	3 university students	cMorals	edwo135	Female	19	cMorals1	86	1	1	86	key	500	d	7.80710329012598	No	1_1	1位法官	3位大学生	1	1	1	86	1	0.546746031746032	0.0450344190324182	0.906507936507936	-1	1	FALSE	-0.093492063492064	1	0.95	-0.295171037787446	8.10227432791343
0.95	6 thieves	a thief	cMorals	edwo135	Female	19	cMorals1	48	1	1	48	key	500	k	8.91508301268747	Yes	1_1	6个小偷	1个小偷	1	1	1	48	1	0.471109243697479	0.0470028489442114	0.942218487394958	-1	0	FALSE	-0.057781512605042	0	0.95	0.769924332531387	8.14515868015608
0.95	52 billionaires	48 homeless adults	cMorals	edwo135	Female	19	cMorals1	85	1	1	85	key	500	k	8.92525492537167	Yes	1_1	52位亿万富翁	48个流浪的人	1	1	1	85	1	0.518795081967213	0.045368527985265	0.962409836065574	-1	0	FALSE	-0.037590163934426	0	0.95	0.822670898957259	8.10258402641441
0.95	50 elderly people	50 police officers	cMorals	edwo135	Female	19	cMorals1	102	1	1	102	key	500	d	9.04882094281149	No	1_1	50位老人	50位警官	1	1	1	102	1	0.509504347826087	0.0455994311060008	0.980991304347826	1	0	TRUE	0.019008695652174	0	0.95	0.949659426019489	8.099161516792
0.95	49 celebrities	3 olympians	cMorals	edwo135	Female	19	cMorals1	76	1	1	76	key	500	k	8.08002067446273	Yes	1_1	49个明星	3个奥运选手	1	1	1	76	1	0.522681818181818	0.0445842174409639	0.954636363636364	-1	0	FALSE	-0.045363636363636	0	0.95	-0.0263509558921964	8.10637163035492
0.95	8 billionaires	an adult	cMorals	edwo135	Female	19	cMorals1	4	1	1	4	key	500	d	8.69441845078544	No	1_1	8位亿万富翁	1位成年人	1	1	1	4	1	0.454616	0.0448617556624919	0.909232	-1	1	FALSE	-0.090768	1	0.95	-0.0466238178170233	8.74104226860247
0.95	a mentor	49 astronauts	cMorals	edwo135	Female	19	cMorals1	74	1	1	74	key	500	d	7.63419215740817	No	1_1	1位导师	49位宇航员	1	1	1	74	1	0.544672131147541	0.0452262548993254	0.910655737704918	-1	1	FALSE	-0.089344262295082	1	0.95	-0.473331012968883	8.10752317037705
0.95	8 billionaires	an olympian	cMorals	edwo135	Female	19	cMorals1	31	1	1	31	key	500	k	9.84789027243404	Yes	1_1	8位亿万富翁	1位奥运选手	1	1	1	31	1	0.520275	0.0454110900293443	0.95945	1	1	TRUE	0.04055	1	0.95	1.6198620476675	8.22802822476653
0.95	51 convicts	6 thieves	cMorals	edwo135	Female	19	cMorals1	51	1	1	51	key	500	d	8.37045497130478	No	1_1	51个罪犯	6个小偷	1	1	1	51	1	0.522654867256637	0.0469348099232354	0.954690265486726	1	0	TRUE	0.045309734513274	0	0.95	0.233081398467455	8.13737357283732
0.95	47 olympians	6 elderly people	cMorals	edwo135	Female	19	cMorals1	44	1	1	44	key	500	k	8.23416693050065	Yes	1_1	47名奥运选手	6个老人	1	1	1	44	1	0.469548387096774	0.0465240146896183	0.939096774193548	-1	0	FALSE	-0.060903225806452	0	0.95	0.0762335369389273	8.15793339356172
0.95	53 judges	5 mentors	cMorals	edwo135	Female	19	cMorals1	110	1	1	110	key	500	k	8.67491463134247	Yes	1_1	53位法官	5位导师	1	1	1	110	1	0.545096774193548	0.0459323406239106	0.909806451612903	-1	0	FALSE	-0.090193548387097	0	0.95	0.576498817359244	8.09841581398322
0.95	49 mentors	48 homeless adults	cMorals	edwo135	Female	19	cMorals1	30	1	1	30	key	500	d	9.70406663133632	No	1_1	49位导师	48个流浪的人	1	1	1	30	1	0.455661157024793	0.0453061648985833	0.911322314049587	1	0	TRUE	0.088677685950413	0	0.95	1.46808377740135	8.23598285393497
0.95	50 police officers	5 astronauts	cMorals	edwo135	Female	19	cMorals1	78	1	1	78	key	500	k	7.7594861561591	Yes	1_1	50位警官	5位宇航员	1	1	1	78	1	0.468633928571429	0.0473752936230409	0.937267857142857	1	1	TRUE	0.062732142857143	1	0.95	-0.345862138990244	8.10534829514934
0.95	9 judges	4 nuns	cMorals	edwo135	Female	19	cMorals1	96	1	1	96	key	500	k	7.69129145926772	Yes	1_1	9个法官	4位修女	1	1	1	96	1	0.532805084745763	0.0461736454403935	0.934389830508475	-1	0	FALSE	-0.065610169491525	0	0.95	-0.408711997897249	8.10000345716497
0.95	53 judges	an astronaut	cMorals	edwo135	Female	19	cMorals1	46	1	1	46	key	500	k	7.4232101711309	Yes	1_1	53位法官	1位宇航员	1	1	1	46	1	0.493106870229008	0.043646023501985	0.986213740458015	-1	0	FALSE	-0.013786259541985	0	0.95	-0.727959343027362	8.15116951415826
0.95	an adult	49 mentors	cMorals	edwo135	Female	19	cMorals1	116	1	1	116	key	500	d	9.77841173910178	No	1_1	1位成年人	49位导师	1	1	1	116	1	0.53	0.0454035350151951	0.94	-1	1	FALSE	-0.06	1	0.95	1.68036443869002	8.09804730041177
0.95	49 celebrities	3 university students	cMorals	edwo135	Female	19	cMorals1	81	1	1	81	key	500	k	7.67238556116533	Yes	1_1	49个明星	3位大学生	1	1	1	81	1	0.536679389312977	0.0436883572108104	0.926641221374046	-1	0	FALSE	-0.073358778625954	0	0.95	-0.431637331486519	8.10402289265185
0.95	an adult	47 olympians	cMorals	edwo135	Female	19	cMorals1	107	1	1	107	key	500	d	7.91520211989868	No	1_1	1位成年人	47名奥运选手	1	1	1	107	1	0.549705882352941	0.0441271293125966	0.900588235294118	-1	1	FALSE	-0.099411764705882	1	0.95	-0.183453059568474	8.09865517946715
0.95	5 orphans	50 elderly people	cMorals	edwo135	Female	19	cMorals1	99	1	1	99	key	500	d	9.72865190626632	No	1_1	5个孤儿	50位老人	1	1	1	99	1	0.475176	0.0450728364381984	0.950352	-1	1	FALSE	-0.049648	1	0.95	1.62910658855452	8.0995453177118
0.95	50 elderly people	47 olympians	cMorals	edwo135	Female	19	cMorals1	5	1	1	5	key	500	d	9.09440188409477	No	1_1	50位老人	47名奥运选手	1	1	1	5	1	0.46050406504065	0.0460954688890072	0.921008130081301	1	0	TRUE	0.078991869918699	0	0.95	0.390258608564418	8.70414327553035
0.05	a pedophile	47 university students	cMorals	ivne781	Female	21	cMorals1	52	1	1	52	key	500	k	7.61134771740362	No	1_1	1位恋童癖的人	47位大学生	1	1	1	52	1	0.961154471544715	0.0175001758191584	0.0776910569105691	-1	1	FALSE	-0.922308943089431	1	0.05	-0.69245648332403	8.30380420072765
0.05	8 terrorists	6 elderly people	cMorals	ivne781	Female	21	cMorals1	94	1	1	94	key	500	k	8.43287636264526	No	1_1	8位恐怖分子	6个老人	1	1	1	94	1	0.957544	0.0183303045273139	0.0849120000000001	-1	1	FALSE	-0.915088	1	0.05	0.0321592349980335	8.40071712764722
0.05	a soldier	a rapist	cMorals	ivne781	Female	21	cMorals1	72	1	1	72	key	500	d	8.04872438379001	Yes	1_1	1位士兵	1位强奸犯	1	1	1	72	1	0.0331102362204724	0.0158050228676122	0.0662204724409449	1	1	TRUE	0.933779527559055	1	0.05	-0.301088597752001	8.34981298154201
0.05	9 rapists	a university student	cMorals	ivne781	Female	21	cMorals1	36	1	1	36	key	500	k	7.98759241225913	No	1_1	9个强奸犯	1位大学生	1	1	1	36	1	0.0423189655172414	0.0186002729193279	0.0846379310344828	-1	1	FALSE	-0.915362068965517	1	0.05	-0.279587362217386	8.26717977447652
0.15	47 olympians	a rapist	cMorals	ivne781	Female	21	cMorals1	16	1	1	16	key	500	d	7.56148572720309	Yes	1_1	47名奥运选手	1位强奸犯	1	1	1	16	1	0.943031496062992	0.0204793137154552	0.113937007874016	1	1	TRUE	0.886062992125984	1	0.15	-0.660140588407027	8.22162631561012
0.15	an elderly person	a thief	cMorals	ivne781	Female	21	cMorals1	51	1	1	51	key	500	d	8.79934500012429	Yes	1_1	1位老人	1个小偷	1	1	1	51	1	0.089448275862069	0.0269710677719799	0.178896551724138	1	1	TRUE	0.821103448275862	1	0.15	0.497834572009538	8.30151042811475
0.15	an olympian	53 rapists	cMorals	ivne781	Female	21	cMorals1	78	1	1	78	key	500	d	8.19784155734281	Yes	1_1	1位奥运选手	53个强奸犯	1	1	1	78	1	0.0955	0.0281518382538592	0.191	1	1	TRUE	0.809	1	0.15	-0.165823703779049	8.36366526112186
0.15	6 elderly people	a thief	cMorals	ivne781	Female	21	cMorals1	55	1	1	55	key	500	k	7.96637855946697	No	1_1	6个老人	1个小偷	1	1	1	55	1	0.908581967213115	0.0258860252851507	0.18283606557377	1	0	TRUE	0.81716393442623	0	0.15	-0.344310762524381	8.31068932199135
0.15	8 terrorists	49 astronauts	cMorals	ivne781	Female	21	cMorals1	86	1	1	86	key	500	k	9.15816247590755	No	1_1	8位恐怖分子	49位宇航员	1	1	1	86	1	0.938305785123967	0.0219807505444707	0.123388429752066	-1	1	FALSE	-0.876611570247934	1	0.15	0.775991754130619	8.38217072177694
0.15	49 mentors	a pedophile	cMorals	ivne781	Female	21	cMorals1	90	1	1	90	key	500	d	7.48509871377167	Yes	1_1	49位导师	1位恋童癖的人	1	1	1	90	1	0.943661417322835	0.0210725743707143	0.112677165354331	1	1	TRUE	0.887322834645669	1	0.15	-0.906340087130983	8.39143880090266
0.15	a homeless adult	47 pedophiles	cMorals	ivne781	Female	21	cMorals1	47	1	1	47	key	500	k	9.05441144534374	No	1_1	1个流浪的人	47个恋童癖	1	1	1	47	1	0.083547619047619	0.0239419220585484	0.167095238095238	1	0	TRUE	0.832904761904762	0	0.15	0.762069773307205	8.29234167203653
0.15	an assassin	9 adults	cMorals	ivne781	Female	21	cMorals1	99	1	1	99	key	500	k	7.83960434979092	No	1_1	1位刺客	9位成年人	1	1	1	99	1	0.904669291338583	0.0268631948035646	0.190661417322835	-1	1	FALSE	-0.809338582677165	1	0.15	-0.572725114263801	8.41232946405472
0.15	47 pedophiles	3 university students	cMorals	ivne781	Female	21	cMorals1	85	1	1	85	key	500	k	9.07158392393309	No	1_1	47个恋童癖	3位大学生	1	1	1	85	1	0.925488	0.022955452703199	0.149024	-1	1	FALSE	-0.850976	1	0.15	0.691728622073764	8.37985530185933
0.15	a rapist	9 judges	cMorals	ivne781	Female	21	cMorals1	70	1	1	70	key	500	k	7.86426622430601	No	1_1	1位强奸犯	9个法官	1	1	1	70	1	0.903532786885246	0.0264565697787324	0.192934426229508	-1	1	FALSE	-0.807065573770492	1	0.15	-0.480934430980529	8.34520065528654
0.15	an elderly person	47 pedophiles	cMorals	ivne781	Female	21	cMorals1	74	1	1	74	key	500	k	8.64604364550545	No	1_1	1位老人	47个恋童癖	1	1	1	74	1	0.0561206896551724	0.021371741649084	0.112241379310345	1	0	TRUE	0.887758620689655	0	0.15	0.291615788511807	8.35442785699364
0.25	a mentor	7 assassins	cMorals	ivne781	Female	21	cMorals1	37	1	1	37	key	500	d	7.99419376665418	Yes	1_1	1位导师	7位刺客	1	1	1	37	1	0.128084745762712	0.0316306505818197	0.256169491525424	1	1	TRUE	0.743830508474576	1	0.25	-0.275270294605665	8.26946406125985
0.25	53 rapists	4 nuns	cMorals	ivne781	Female	21	cMorals1	27	1	1	27	key	500	k	7.18523548909384	No	1_1	53个强奸犯	4位修女	1	1	1	27	1	0.875890756302521	0.0302598094819261	0.248218487394958	-1	1	FALSE	-0.751781512605042	1	0.25	-1.06141407806922	8.24664956716306
0.25	48 soldiers	49 hooligans	cMorals	ivne781	Female	21	cMorals1	67	1	1	67	key	500	d	9.75622807375212	Yes	1_1	48位士兵	49个流氓	1	1	1	67	1	0.899535087719298	0.0272062933047484	0.200929824561404	1	1	TRUE	0.799070175438596	1	0.25	1.41794113118608	8.33828694256604
0.25	an astronaut	a hooligan	cMorals	ivne781	Female	21	cMorals1	50	1	1	50	key	500	d	7.60901942762038	Yes	1_1	1位宇航员	1个流氓	1	1	1	50	1	0.13380487804878	0.0299666258737666	0.267609756097561	1	1	TRUE	0.732390243902439	1	0.25	-0.690197861493801	8.29921728911418
0.25	53 adults	6 thieves	cMorals	ivne781	Female	21	cMorals1	108	1	1	108	key	500	d	7.70773688845591	Yes	1_1	53位成年人	6个小偷	1	1	1	108	1	0.871262295081967	0.0299701241242851	0.257475409836066	1	1	TRUE	0.742524590163934	1	0.25	-0.725535246495599	8.43327213495151
0.25	5 orphans	49 hooligans	cMorals	ivne781	Female	21	cMorals1	104	1	1	104	key	500	d	7.9210638227531	Yes	1_1	5个孤儿	49个流氓	1	1	1	104	1	0.146428571428571	0.0326689667129954	0.292857142857143	1	1	TRUE	0.707142857142857	1	0.25	-0.502894029476468	8.42395785222957
0.25	50 police officers	an assassin	cMorals	ivne781	Female	21	cMorals1	116	1	1	116	key	500	d	8.4695353858767	Yes	1_1	50位警官	1位刺客	1	1	1	116	1	0.874452991452991	0.02971898157952	0.251094017094017	1	1	TRUE	0.748905982905983	1	0.25	0.0176037779770848	8.45193160789961
0.25	4 homeless adults	52 terrorists	cMorals	ivne781	Female	21	cMorals1	32	1	1	32	key	500	d	8.04597282225788	Yes	1_1	4个流浪的人	52个恐怖分子	1	1	1	32	1	0.885949152542373	0.0288805923272893	0.228101694915254	1	1	TRUE	0.771898305084746	1	0.25	-0.212076113263084	8.25804893552097
0.25	an adult	6 thieves	cMorals	ivne781	Female	21	cMorals1	41	1	1	41	key	500	d	8.22729533260138	Yes	1_1	1位成年人	6个小偷	1	1	1	41	1	0.124483050847458	0.0309009298309827	0.248966101694915	1	1	TRUE	0.751033898305085	1	0.25	-0.0513121892000168	8.27860752180139
0.25	a hooligan	9 adults	cMorals	ivne781	Female	21	cMorals1	42	1	1	42	key	500	k	7.46725677464492	No	1_1	1个流氓	9位成年人	1	1	1	42	1	0.861860655737705	0.0317186271636784	0.27627868852459	-1	1	FALSE	-0.72372131147541	1	0.25	-0.813638191516261	8.28089496616118
0.25	7 assassins	47 university students	cMorals	ivne781	Female	21	cMorals1	119	1	1	119	key	500	k	7.82939169712413	No	1_1	7位刺客	47位大学生	1	1	1	119	1	0.872175438596491	0.0297888697017227	0.255649122807017	-1	1	FALSE	-0.744350877192983	1	0.25	-0.629547852271478	8.45893954939561
0.25	53 rapists	50 police officers	cMorals	ivne781	Female	21	cMorals1	15	1	1	15	key	500	k	7.44313692072776	No	1_1	53个强奸犯	50位警官	1	1	1	15	1	0.888614678899083	0.0300489834467303	0.222770642201835	-1	1	FALSE	-0.777229357798165	1	0.25	-0.776218322393118	8.21935524312088
0.25	6 thieves	50 elderly people	cMorals	ivne781	Female	21	cMorals1	76	1	1	76	key	500	k	8.24159778007448	No	1_1	6个小偷	50位老人	1	1	1	76	1	0.865549180327869	0.0321683384973359	0.268901639344262	-1	1	FALSE	-0.731098360655738	1	0.25	-0.117447502975883	8.35904528305036
0.35	5 astronauts	49 hooligans	cMorals	ivne781	Female	21	cMorals1	68	1	1	68	key	500	d	7.55580048560472	Yes	1_1	5位宇航员	49个流氓	1	1	1	68	1	0.153612068965517	0.0339218636010269	0.307224137931035	1	1	TRUE	0.692775862068965	1	0.35	-0.78479039121437	8.34059087681909
0.35	an astronaut	49 hooligans	cMorals	ivne781	Female	21	cMorals1	83	1	1	83	key	500	k	7.81334900134652	No	1_1	1位宇航员	49个流氓	1	1	1	83	1	0.182231404958678	0.0344766832005263	0.364462809917355	1	0	TRUE	0.635537190082645	0	0.35	-0.561877379276942	8.37522638062346
0.35	5 hooligans	a mentor	cMorals	ivne781	Female	21	cMorals1	95	1	1	95	key	500	k	9.19129006163808	No	1_1	5个流氓	1位导师	1	1	1	95	1	0.184635658914729	0.0342372328414024	0.369271317829457	-1	1	FALSE	-0.630728682170543	1	0.35	0.788251749786724	8.40303831185135
0.35	a convict	a police officer	cMorals	ivne781	Female	21	cMorals1	23	1	1	23	key	500	k	8.75501252467306	No	1_1	1位罪犯	1位警察	1	1	1	23	1	0.173394160583942	0.0308862468942045	0.346788321167883	-1	1	FALSE	-0.653211678832117	1	0.35	0.517471121499989	8.23754140317307
0.35	6 thieves	a nun	cMorals	ivne781	Female	21	cMorals1	28	1	1	28	key	500	k	7.80543387468317	No	1_1	6个小偷	1位修女	1	1	1	28	1	0.165747967479675	0.0336494639999077	0.33149593495935	-1	1	FALSE	-0.66850406504065	1	0.35	-0.443494306605485	8.24892818128866
0.35	9 adults	49 hooligans	cMorals	ivne781	Female	21	cMorals1	14	1	1	14	key	500	d	8.64802845271789	Yes	1_1	9位成年人	49个流氓	1	1	1	14	1	0.152866666666667	0.0337310111684749	0.305733333333333	1	1	TRUE	0.694266666666667	1	0.35	0.430943654744395	8.2170847979735
